SpectraSuite Data File
++++++++++++++++++++++++++++++++++++
Date: Fri Apr 17 15:39:10 EST 2015
User: root
Dark Spectrum Present: No
Reference Spectrum Present: No
Number of Sampled Component Spectra: 1
Spectrometers: USB4E02642
Integration Time (usec): 4000000 (USB4E02642)
Spectra Averaged: 1 (USB4E02642)
Boxcar Smoothing: 0 (USB4E02642)
Correct for Electrical Dark: No (USB4E02642)
Strobe/Lamp Enabled: No (USB4E02642)
Correct for Detector Non-linearity: No (USB4E02642)
Correct for Stray Light: No (USB4E02642)
Number of Pixels in Processed Spectrum: 3648
>>>>>Begin Processed Spectral Data<<<<<
179.22	999.41
179.43	999.41
179.65	999.41
179.86	944.11
180.08	927.73
180.29	3117.01
180.51	2252.77
180.72	3639.24
180.94	3786.69
181.15	2246.62
181.37	3854.28
181.58	3276.75
181.80	4403.13
182.01	2740.18
182.23	3164.11
182.44	3542.99
182.66	3887.04
182.87	2930.64
183.09	3198.93
183.30	3575.75
183.52	3612.62
183.73	2787.29
183.95	2783.19
184.16	3465.16
184.38	4122.56
184.59	2799.57
184.81	2641.88
185.02	3233.74
185.24	3430.35
185.45	2330.59
185.67	2811.86
185.88	3682.25
186.10	3579.85
186.31	2514.91
186.53	3233.74
186.74	3422.16
186.96	4229.06
187.17	2459.61
187.39	2291.68
187.60	4116.42
187.81	4806.58
188.03	2484.19
188.24	3356.62
188.46	3569.61
188.67	4026.31
188.89	2996.18
189.10	2645.98
189.32	4622.27
189.53	3379.15
189.75	3035.09
189.96	4601.79
190.18	4667.32
190.39	3338.19
190.61	2740.18
190.82	2369.50
191.04	3551.18
191.25	4251.58
191.46	2762.71
191.68	2414.56
191.89	4122.56
192.11	3366.86
192.32	3321.81
192.54	2713.56
192.75	3592.14
192.97	4503.48
193.18	3289.04
193.40	3291.09
193.61	5281.71
193.83	3665.86
194.04	2928.60
194.25	3889.09
194.47	4511.68
194.68	3368.91
194.90	2545.63
195.11	3274.70
195.33	3907.52
195.54	4839.35
195.76	3680.20
195.97	4145.09
196.18	4261.82
196.40	3919.81
196.61	2881.49
196.83	3373.00
197.04	3553.23
197.26	4034.50
197.47	3848.13
197.69	2605.02
197.90	4059.07
198.11	3518.41
198.33	3196.88
198.54	3090.38
198.76	3901.38
198.97	4222.91
199.19	2684.89
199.40	2269.15
199.61	3330.00
199.83	3307.47
200.04	3241.93
200.26	3196.88
200.47	3565.51
200.69	3698.63
200.90	2975.70
201.11	3618.76
201.33	3663.82
201.54	4151.23
201.76	3803.08
201.97	3405.77
202.19	4071.36
202.40	4374.46
202.61	3436.49
202.83	2455.51
203.04	3999.68
203.26	3897.28
203.47	3864.52
203.68	4196.29
203.90	3280.85
204.11	4237.25
204.33	2842.58
204.54	3491.79
204.75	3895.24
204.97	3438.54
205.18	2297.82
205.40	2584.54
205.61	3555.27
205.83	4980.66
206.04	2408.41
206.25	2985.94
206.47	4528.06
206.68	5498.80
206.90	2987.99
207.11	2967.51
207.32	3727.30
207.54	3944.39
207.75	2475.99
207.97	2148.32
208.18	3665.86
208.39	3694.54
208.61	2793.43
208.82	4583.35
209.03	4184.00
209.25	4298.69
209.46	2639.83
209.68	2570.20
209.89	3592.14
210.10	3557.32
210.32	3065.81
210.53	2631.64
210.75	3592.14
210.96	3887.04
211.17	3743.69
211.39	2742.23
211.60	3174.35
211.82	3805.13
212.03	3141.58
212.24	2797.53
212.46	3915.72
212.67	4024.26
212.88	2805.72
213.10	2768.85
213.31	3653.58
213.53	3841.99
213.74	2467.80
213.95	4157.38
214.17	3737.54
214.38	3897.28
214.59	3004.37
214.81	3289.04
215.02	4353.98
215.23	3776.45
215.45	2752.47
215.66	3117.01
215.88	3504.07
216.09	3235.79
216.30	3178.45
216.52	2619.35
216.73	2803.67
216.94	4249.54
217.16	3164.11
217.37	3942.34
217.58	3532.75
217.80	4577.21
218.01	2861.01
218.22	4155.33
218.44	3487.69
218.65	3176.40
218.87	2672.60
219.08	2682.84
219.29	4798.39
219.51	3844.04
219.72	2242.53
219.93	2457.56
220.15	3856.33
220.36	3579.85
220.57	3055.57
220.79	2764.76
221.00	3082.19
221.21	4536.25
221.43	2775.00
221.64	2611.16
221.85	4145.09
222.07	4294.59
222.28	2594.78
222.49	3452.88
222.71	3952.58
222.92	3481.55
223.13	2373.60
223.35	2258.91
223.56	3098.58
223.77	4022.21
223.99	3213.26
224.20	3844.04
224.41	3536.84
224.63	4319.17
224.84	3651.53
225.05	2744.28
225.27	4057.03
225.48	3471.31
225.69	2492.38
225.91	2799.57
226.12	3919.81
226.33	5072.82
226.55	2363.36
226.76	2699.22
226.97	3815.37
227.19	3551.18
227.40	3598.28
227.61	3235.79
227.82	4454.33
228.04	3569.61
228.25	3172.30
228.46	3424.20
228.68	4255.68
228.89	3602.38
229.10	3366.86
229.32	3002.32
229.53	3796.93
229.74	4091.84
229.96	2758.61
230.17	2535.39
230.38	4872.12
230.59	2955.22
230.81	2516.95
231.02	3135.44
231.23	3049.43
231.45	3467.21
231.66	2701.27
231.87	3672.01
232.09	3428.30
232.30	3581.90
232.51	3121.10
232.72	2443.23
232.94	3254.22
233.15	4904.89
233.36	2412.51
233.58	3010.51
233.79	3309.52
234.00	3872.71
234.21	2971.60
234.43	2723.80
234.64	3307.47
234.85	3502.03
235.07	2289.63
235.28	3139.54
235.49	4280.25
235.70	3995.59
235.92	2836.44
236.13	3233.74
236.34	4077.51
236.56	3604.42
236.77	2836.44
236.98	2758.61
237.19	3856.33
237.41	3956.68
237.62	2738.13
237.83	2951.12
238.04	3948.48
238.26	4423.61
238.47	4992.95
238.68	3225.55
238.89	3598.28
239.11	6152.10
239.32	3274.70
239.53	3348.43
239.75	3346.38
239.96	3157.97
240.17	2613.21
240.38	2535.39
240.60	3516.36
240.81	3731.40
241.02	2701.27
241.23	2453.47
241.45	3741.64
241.66	3350.48
241.87	2787.29
242.08	4540.35
242.30	2992.08
242.51	3805.13
242.72	2897.88
242.93	3395.53
243.15	3925.96
243.36	3692.49
243.57	2254.81
243.78	3798.98
244.00	3844.04
244.21	3028.95
244.42	3246.03
244.63	3633.10
244.85	3614.66
245.06	3024.85
245.27	2930.64
245.48	2248.67
245.70	3459.02
245.91	4067.27
246.12	3536.84
246.33	3131.34
246.54	4583.35
246.76	3074.00
246.97	2895.83
247.18	3364.81
247.39	3731.40
247.61	4437.95
247.82	2779.09
248.03	2686.94
248.24	5070.77
248.45	4257.73
248.67	2981.84
248.88	3186.64
249.09	4044.74
249.30	4159.42
249.52	3629.00
249.73	3848.13
249.94	3794.89
250.15	4939.70
250.36	3217.36
250.58	3010.51
250.79	3882.95
251.00	3641.29
251.21	3479.50
251.43	2256.86
251.64	5179.31
251.85	3463.12
252.06	3125.20
252.27	2807.77
252.49	3971.01
252.70	3313.61
252.91	3065.81
253.12	2576.34
253.33	4120.51
253.55	3567.56
253.76	2250.72
253.97	2564.06
254.18	3510.22
254.39	4472.76
254.61	2353.12
254.82	3215.31
255.03	4140.99
255.24	3635.14
255.45	2469.85
255.67	2764.76
255.88	3366.86
256.09	3016.66
256.30	2723.80
256.51	3985.35
256.73	4505.53
256.94	3751.88
257.15	3798.98
257.36	2695.13
257.57	4483.00
257.78	3356.62
258.00	2451.42
258.21	3762.12
258.42	4222.91
258.63	3549.13
258.84	2639.83
259.06	3051.47
259.27	3459.02
259.48	3997.64
259.69	3205.07
259.90	2195.42
260.11	3938.24
260.33	3235.79
260.54	2693.08
260.75	3225.55
260.96	3430.35
261.17	3411.92
261.38	3868.61
261.60	3184.59
261.81	3491.79
262.02	4523.96
262.23	3381.20
262.44	3831.75
262.65	3745.73
262.87	4513.72
263.08	3078.10
263.29	2674.65
263.50	3608.52
263.71	4057.03
263.92	3422.16
264.13	3596.23
264.35	3205.07
264.56	3878.85
264.77	3227.60
264.98	2838.48
265.19	3022.80
265.40	3993.54
265.62	2826.20
265.83	2930.64
266.04	3631.05
266.25	4763.58
266.46	3702.73
266.67	2676.70
266.88	3637.19
267.10	4331.45
267.31	4038.59
267.52	2908.12
267.73	3821.51
267.94	3117.01
268.15	3403.72
268.36	2787.29
268.57	3360.72
268.79	4493.24
269.00	3651.53
269.21	2248.67
269.42	3155.92
269.63	3063.76
269.84	2856.92
270.05	2834.39
270.27	4577.21
270.48	3741.64
270.69	2723.80
270.90	2389.98
271.11	3475.40
271.32	4175.81
271.53	3270.61
271.74	2828.24
271.96	3758.02
272.17	3389.39
272.38	2764.76
272.59	2125.79
272.80	3614.66
273.01	3692.49
273.22	3051.47
273.43	2645.98
273.64	2918.36
273.86	4333.50
274.07	2762.71
274.28	2299.87
274.49	5011.38
274.70	3968.96
274.91	3260.37
275.12	2818.00
275.33	3485.64
275.54	3205.07
275.76	2666.46
275.97	2496.47
276.18	3319.76
276.39	3741.64
276.60	2320.35
276.81	3291.09
277.02	3766.21
277.23	3870.66
277.44	2703.32
277.65	3082.19
277.86	3315.66
278.08	4044.74
278.29	3811.27
278.50	3055.57
278.71	2936.79
278.92	3801.03
279.13	3086.29
279.34	2801.62
279.55	3416.01
279.76	3647.43
279.97	2731.99
280.18	3768.26
280.40	3913.67
280.61	3387.34
280.82	2369.50
281.03	2936.79
281.24	3661.77
281.45	3911.62
281.66	2920.40
281.87	3917.76
282.08	3612.62
282.29	3991.49
282.50	1986.53
282.71	2273.25
282.92	3377.10
283.13	3389.39
283.35	2904.02
283.56	2549.72
283.77	3825.61
283.98	3585.99
284.19	2271.20
284.40	2555.86
284.61	3264.46
284.82	3459.02
285.03	3659.72
285.24	3043.28
285.45	3604.42
285.66	3760.07
285.87	3350.48
286.08	3012.56
286.29	3522.51
286.50	4358.08
286.71	3827.65
286.93	3327.95
287.14	3674.06
287.35	3348.43
287.56	3348.43
287.77	2834.39
287.98	3342.28
288.19	3465.16
288.40	2607.06
288.61	2531.29
288.82	3508.17
289.03	4493.24
289.24	2639.83
289.45	3330.00
289.66	3653.58
289.87	3631.05
290.08	2840.53
290.29	2725.85
290.50	4372.41
290.71	3864.52
290.92	3956.68
291.13	2824.15
291.34	3815.37
291.55	3293.13
291.76	2899.92
291.97	2643.93
292.18	3590.09
292.39	3547.08
292.61	2209.76
292.82	2486.23
293.03	4413.37
293.24	3659.72
293.45	2908.12
293.66	4204.48
293.87	4237.25
294.08	3497.93
294.29	3133.39
294.50	2172.89
294.71	4145.09
294.92	3493.83
295.13	2754.52
295.34	3493.83
295.55	3952.58
295.76	3305.42
295.97	3446.73
296.18	3102.67
296.39	4095.94
296.60	3516.36
296.81	3448.78
297.02	3110.86
297.23	4151.23
297.44	3758.02
297.65	3180.50
297.86	2494.43
298.07	2879.44
298.28	3467.21
298.49	2535.39
298.70	2516.95
298.91	3581.90
299.12	3035.09
299.33	2936.79
299.54	3041.23
299.75	3432.40
299.96	3743.69
300.17	3133.39
300.38	2789.33
300.59	3020.75
300.80	3905.48
301.01	3307.47
301.22	3256.27
301.43	4417.47
301.64	3385.29
301.85	3006.42
302.06	3133.39
302.27	3397.58
302.48	5439.40
302.69	2361.31
302.89	2586.58
303.10	4009.92
303.31	3274.70
303.52	2672.60
303.73	2684.89
303.94	3289.04
304.15	2736.09
304.36	2004.96
304.57	2750.42
304.78	3086.29
304.99	3962.82
305.20	2973.65
305.41	2586.58
305.62	3719.11
305.83	3348.43
306.04	2668.50
306.25	3039.19
306.46	4227.01
306.67	3682.25
306.88	3127.25
307.09	2455.51
307.30	3930.05
307.51	6313.89
307.72	3180.50
307.93	2609.11
308.14	3508.17
308.35	3020.75
308.55	2611.16
308.76	2287.58
308.97	3866.56
309.18	4364.22
309.39	3774.41
309.60	2688.98
309.81	3399.63
310.02	2840.53
310.23	2707.41
310.44	2500.57
310.65	4108.23
310.86	3137.49
311.07	3352.52
311.28	2762.71
311.49	3188.69
311.70	3819.46
311.91	3268.56
312.11	4706.23
312.32	3925.96
312.53	3602.38
312.74	3053.52
312.95	3092.43
313.16	4192.19
313.37	3860.42
313.58	2510.81
313.79	2322.40
314.00	3504.07
314.21	3289.04
314.42	2801.62
314.63	2969.55
314.83	3162.06
315.04	3844.04
315.25	3090.38
315.46	3387.34
315.67	3387.34
315.88	3186.64
316.09	3547.08
316.30	2787.29
316.51	3563.47
316.72	3594.19
316.93	3026.90
317.13	2824.15
317.34	3106.77
317.55	4237.25
317.76	2095.07
317.97	2979.79
318.18	3250.13
318.39	3383.24
318.60	3047.38
318.81	2267.10
319.02	3563.47
319.23	3805.13
319.43	3725.26
319.64	2807.77
319.85	4100.03
320.06	3581.90
320.27	2537.43
320.48	3766.21
320.69	3788.74
320.90	3526.60
321.11	2697.17
321.31	3262.41
321.52	4724.66
321.73	3635.14
321.94	3182.54
322.15	2205.66
322.36	4704.18
322.57	3921.86
322.78	2324.44
322.98	3399.63
323.19	3768.26
323.40	3477.45
323.61	3135.44
323.82	3604.42
324.03	2895.83
324.24	3614.66
324.45	3637.19
324.65	2439.13
324.86	3651.53
325.07	3731.40
325.28	2744.28
325.49	4024.26
325.70	4409.28
325.91	3977.16
326.12	2492.38
326.32	2910.16
326.53	3897.28
326.74	3563.47
326.95	2723.80
327.16	2746.33
327.37	3381.20
327.58	3125.20
327.78	2926.55
327.99	2258.91
328.20	3649.48
328.41	3624.90
328.62	3176.40
328.83	2621.40
329.04	3006.42
329.24	3157.97
329.45	2467.80
329.66	2691.03
329.87	4726.71
330.08	3669.96
330.29	2570.20
330.49	2557.91
330.70	2627.54
330.91	3160.02
331.12	3108.82
331.33	3289.04
331.54	2672.60
331.74	3534.79
331.95	2643.93
332.16	2236.38
332.37	3207.12
332.58	4149.18
332.79	2398.17
332.99	2725.85
333.20	3356.62
333.41	3817.41
333.62	3698.63
333.83	3753.93
334.04	3268.56
334.24	2961.36
334.45	2781.14
334.66	2947.03
334.87	3110.86
335.08	3258.32
335.29	2740.18
335.49	3334.09
335.70	3616.71
335.91	3778.50
336.12	3221.45
336.33	2957.27
336.53	3225.55
336.74	3608.52
336.95	2478.04
337.16	2363.36
337.37	3141.58
337.57	2985.94
337.78	2539.48
337.99	2379.74
338.20	3387.34
338.41	3291.09
338.62	2916.31
338.82	3811.27
339.03	3123.15
339.24	3991.49
339.45	2715.61
339.65	2682.84
339.86	2899.92
340.07	3872.71
340.28	2547.67
340.49	2752.47
340.69	3540.94
340.90	3749.83
341.11	3131.34
341.32	4788.15
341.53	2770.90
341.73	3936.20
341.94	3563.47
342.15	2885.59
342.36	3524.55
342.57	4157.38
342.77	3227.60
342.98	2543.58
343.19	2858.96
343.40	3747.78
343.60	3862.47
343.81	3413.96
344.02	3567.56
344.23	4128.70
344.44	2213.85
344.64	2244.57
344.85	3749.83
345.06	3676.10
345.27	2629.59
345.47	2260.96
345.68	3676.10
345.89	3522.51
346.10	2793.43
346.30	2445.27
346.51	3966.92
346.72	4986.80
346.93	2678.74
347.13	3135.44
347.34	3440.59
347.55	4208.58
347.76	2086.88
347.97	3467.21
348.17	3067.86
348.38	3123.15
348.59	2021.35
348.80	2717.65
349.00	3184.59
349.21	4159.42
349.42	3960.77
349.63	3268.56
349.83	3510.22
350.04	2877.40
350.25	3278.80
350.45	2447.32
350.66	3516.36
350.87	3708.87
351.08	2226.14
351.28	3592.14
351.49	4054.98
351.70	4132.80
351.91	2351.07
352.11	3796.93
352.32	3385.29
352.53	4016.07
352.74	2488.28
352.94	2770.90
353.15	3895.24
353.36	3434.44
353.56	3039.19
353.77	3168.21
353.98	3532.75
354.19	4419.52
354.39	2754.52
354.60	2725.85
354.81	3180.50
355.02	2910.16
355.22	3594.19
355.43	2428.89
355.64	3082.19
355.84	3608.52
356.05	3024.85
356.26	3119.06
356.47	2879.44
356.67	3553.23
356.88	3438.54
357.09	3145.68
357.29	3518.41
357.50	4812.73
357.71	2842.58
357.92	2813.91
358.12	3370.96
358.33	3706.82
358.54	2863.06
358.74	2566.10
358.95	4792.25
359.16	3467.21
359.36	2799.57
359.57	3043.28
359.78	3780.55
359.98	3082.19
360.19	2549.72
360.40	2832.34
360.61	3667.91
360.81	3796.93
361.02	2158.56
361.23	3631.05
361.43	4177.86
361.64	3645.38
361.85	3233.74
362.05	3405.77
362.26	3250.13
362.47	3389.39
362.67	3430.35
362.88	3702.73
363.09	3559.37
363.29	2934.74
363.50	2793.43
363.71	2494.43
363.91	3753.93
364.12	3854.28
364.33	2168.80
364.53	2193.37
364.74	3286.99
364.95	4378.56
365.15	2951.12
365.36	2752.47
365.57	4353.98
365.77	3037.14
365.98	2459.61
366.19	3035.09
366.39	3082.19
366.60	2971.60
366.81	2377.69
367.01	2234.33
367.22	3243.98
367.43	4564.92
367.63	2369.50
367.84	2521.05
368.05	3639.24
368.25	3121.10
368.46	2504.67
368.67	3039.19
368.87	3418.06
369.08	3579.85
369.29	2764.76
369.49	4243.39
369.70	4392.89
369.91	4317.12
370.11	2453.47
370.32	2770.90
370.52	3585.99
370.73	3733.45
370.94	2330.59
371.14	2865.11
371.35	3413.96
371.56	3428.30
371.76	3184.59
371.97	2840.53
372.18	3030.99
372.38	3012.56
372.59	2934.74
372.79	2875.35
373.00	3354.57
373.21	4151.23
373.41	2695.13
373.62	2406.36
373.83	3588.04
374.03	3121.10
374.24	2830.29
374.44	2709.46
374.65	3370.96
374.86	3659.72
375.06	3252.17
375.27	2562.01
375.47	3665.86
375.68	3766.21
375.89	3008.47
376.09	3041.23
376.30	3239.89
376.50	4128.70
376.71	3309.52
376.92	3618.76
377.12	4542.39
377.33	3594.19
377.54	2770.90
377.74	3272.65
377.95	4110.27
378.15	3495.88
378.36	3000.27
378.57	2899.92
378.77	3782.60
378.98	3164.11
379.18	2787.29
379.39	2969.55
379.59	3506.12
379.80	3784.65
380.01	2117.60
380.21	2346.97
380.42	3379.15
380.62	4333.50
380.83	2363.36
381.04	2701.27
381.24	4057.03
381.45	3565.51
381.65	2568.15
381.86	2559.96
382.06	3223.50
382.27	3301.33
382.48	2844.63
382.68	3217.36
382.89	3499.98
383.09	4632.51
383.30	2115.55
383.51	3125.20
383.71	3944.39
383.92	3172.30
384.12	2406.36
384.33	2586.58
384.53	3667.91
384.74	4016.07
384.94	3737.54
385.15	2940.88
385.36	4233.15
385.56	3641.29
385.77	2936.79
385.97	2387.93
386.18	3401.68
386.38	3506.12
386.59	2627.54
386.79	2357.21
387.00	3010.51
387.21	3749.83
387.41	3696.58
387.62	2287.58
387.82	3043.28
388.03	3264.46
388.23	2799.57
388.44	2140.13
388.64	2992.08
388.85	3878.85
389.06	2551.77
389.26	2897.88
389.47	2781.14
389.67	3264.46
389.88	3680.20
390.08	2529.24
390.29	3262.41
390.49	3762.12
390.70	3866.56
390.90	3618.76
391.11	3588.04
391.31	3141.58
391.52	3020.75
391.72	2713.56
391.93	3117.01
392.13	3303.37
392.34	3100.62
392.55	3667.91
392.75	2990.03
392.96	3397.58
393.16	3475.40
393.37	3139.54
393.57	2932.69
393.78	2617.30
393.98	2652.12
394.19	3416.01
394.39	3299.28
394.60	2809.81
394.80	3532.75
395.01	3020.75
395.21	3395.53
395.42	3256.27
395.62	2242.53
395.83	2838.48
396.03	3348.43
396.24	3960.77
396.44	2871.25
396.65	3119.06
396.85	3459.02
397.06	2969.55
397.26	3301.33
397.47	2885.59
397.67	3815.37
397.88	3010.51
398.08	2564.06
398.29	3026.90
398.49	4042.69
398.70	3307.47
398.90	2754.52
399.11	2342.88
399.31	3852.23
399.52	3585.99
399.72	2607.06
399.93	3821.51
400.13	3129.30
400.34	3330.00
400.54	4353.98
400.75	2594.78
400.95	3811.27
401.15	3577.80
401.36	3112.91
401.56	3200.98
401.77	3676.10
401.97	3059.67
402.18	2740.18
402.38	1935.33
402.59	5009.33
402.79	3225.55
403.00	2639.83
403.20	2785.24
403.41	3762.12
403.61	3446.73
403.82	2605.02
404.02	2699.22
404.22	3805.13
404.43	3043.28
404.63	2717.65
404.84	3725.26
405.04	2885.59
405.25	2961.36
405.45	2332.64
405.66	2680.79
405.86	3846.09
406.07	3489.74
406.27	3020.75
406.47	2379.74
406.68	3076.05
406.88	3569.61
407.09	2678.74
407.29	2938.84
407.50	2930.64
407.70	3348.43
407.91	2328.54
408.11	2848.72
408.31	3596.23
408.52	3915.72
408.72	2547.67
408.93	2504.67
409.13	4091.84
409.34	4347.84
409.54	2768.85
409.74	2639.83
409.95	2824.15
410.15	2922.45
410.36	2537.43
410.56	2330.59
410.77	3536.84
410.97	3200.98
411.17	3108.82
411.38	2725.85
411.58	3481.55
411.79	3807.17
411.99	2361.31
412.19	2668.50
412.40	3301.33
412.60	4990.90
412.81	2494.43
413.01	3061.71
413.22	3237.84
413.42	2973.65
413.62	2488.28
413.83	3098.58
414.03	3305.42
414.24	3243.98
414.44	3069.91
414.64	3026.90
414.85	3311.57
415.05	4474.81
415.26	3160.02
415.46	2324.44
415.66	3354.57
415.87	3024.85
416.07	2867.16
416.28	2398.17
416.48	2895.83
416.68	4444.09
416.89	2580.44
417.09	2400.22
417.29	2811.86
417.50	3106.77
417.70	2432.99
417.91	3446.73
418.11	3526.60
418.31	4194.24
418.52	2222.05
418.72	2850.77
418.93	3250.13
419.13	3002.32
419.33	2328.54
419.54	2453.47
419.74	2846.68
419.94	3907.52
420.15	3049.43
420.35	2775.00
420.56	3573.71
420.76	2797.53
420.96	2252.77
421.17	2725.85
421.37	4237.25
421.57	3549.13
421.78	3104.72
421.98	3397.58
422.18	3454.92
422.39	3844.04
422.59	2185.18
422.80	2738.13
423.00	3323.85
423.20	3481.55
423.41	2375.64
423.61	3289.04
423.81	3753.93
424.02	3276.75
424.22	3127.25
424.42	2473.95
424.63	3469.26
424.83	3626.95
425.03	2351.07
425.24	2596.82
425.44	3239.89
425.64	4132.80
425.85	2734.04
426.05	2717.65
426.25	3344.33
426.46	3549.13
426.66	2574.30
426.86	4247.49
427.07	3678.15
427.27	3323.85
427.47	3080.14
427.68	3659.72
427.88	4028.35
428.08	3981.25
428.29	2551.77
428.49	3248.08
428.69	3762.12
428.90	2770.90
429.10	2529.24
429.30	3084.24
429.51	3035.09
429.71	3794.89
429.91	2775.00
430.12	3282.89
430.32	4894.65
430.52	3325.90
430.72	3174.35
430.93	3407.82
431.13	3454.92
431.33	3323.85
431.54	2975.70
431.74	2330.59
431.94	3760.07
432.15	3024.85
432.35	2932.69
432.55	2316.25
432.76	3438.54
432.96	3551.18
433.16	2488.28
433.36	2650.07
433.57	3790.79
433.77	3368.91
433.97	3346.38
434.18	2586.58
434.38	3452.88
434.58	4431.80
434.78	2623.45
434.99	2684.89
435.19	3551.18
435.39	3581.90
435.60	2248.67
435.80	4353.98
436.00	2840.53
436.20	4302.78
436.41	2598.87
436.61	2062.30
436.81	3538.89
437.02	3061.71
437.22	3194.83
437.42	2252.77
437.62	3487.69
437.83	3760.07
438.03	2961.36
438.23	2551.77
438.43	3825.61
438.64	3153.87
438.84	3127.25
439.04	2228.19
439.25	4196.29
439.45	3680.20
439.65	2168.80
439.85	2662.36
440.06	3909.57
440.26	3420.11
440.46	4208.58
440.66	2504.67
440.87	3459.02
441.07	3696.58
441.27	2570.20
441.47	3174.35
441.68	3911.62
441.88	3561.42
442.08	2744.28
442.28	3172.30
442.49	3770.31
442.69	3913.67
442.89	2277.34
443.09	2349.02
443.30	2942.93
443.50	3993.54
443.70	3319.76
443.90	2021.35
444.10	3223.50
444.31	3678.15
444.51	1968.10
444.71	3030.99
444.91	3669.96
445.12	3731.40
445.32	2346.97
445.52	2439.13
445.72	3604.42
445.93	2779.09
446.13	2377.69
446.33	4026.31
446.53	3618.76
446.73	3850.18
446.94	1904.61
447.14	2908.12
447.34	3002.32
447.54	3925.96
447.74	2598.87
447.95	3141.58
448.15	3631.05
448.35	3903.43
448.55	2449.37
448.76	3082.19
448.96	2836.44
449.16	3725.26
449.36	2617.30
449.56	2293.72
449.77	4102.08
449.97	3241.93
450.17	2420.70
450.37	2295.77
450.57	3696.58
450.78	3858.37
450.98	2473.95
451.18	2693.08
451.38	2858.96
451.58	3663.82
451.79	2572.25
451.99	2170.85
452.19	3370.96
452.39	3928.00
452.59	3405.77
452.79	2523.10
453.00	3741.64
453.20	3217.36
453.40	3377.10
453.60	3936.20
453.80	3618.76
454.01	4405.18
454.21	2328.54
454.41	2664.41
454.61	3274.70
454.81	3336.14
455.01	3393.48
455.22	2629.59
455.42	4378.56
455.62	4937.65
455.82	3110.86
456.02	2715.61
456.22	3235.79
456.43	3563.47
456.63	2844.63
456.83	3123.15
457.03	4005.83
457.23	3313.61
457.43	3334.09
457.64	3256.27
457.84	3774.41
458.04	4585.40
458.24	2174.94
458.44	2932.69
458.64	3895.24
458.84	4583.35
459.05	2502.62
459.25	3045.33
459.45	3313.61
459.65	3749.83
459.85	2000.87
460.05	2623.45
460.25	3866.56
460.46	3856.33
460.66	2533.34
460.86	2498.52
461.06	4079.55
461.26	3127.25
461.46	2488.28
461.66	2951.12
461.87	3561.42
462.07	3315.66
462.27	4302.78
462.47	2166.75
462.67	4028.35
462.87	3301.33
463.07	2953.17
463.27	2904.02
463.48	3246.03
463.68	3049.43
463.88	2934.74
464.08	3129.30
464.28	4016.07
464.48	3239.89
464.68	3235.79
464.88	3123.15
465.08	3033.04
465.29	3413.96
465.49	1994.72
465.69	3745.73
465.89	3971.01
466.09	3633.10
466.29	2551.77
466.49	2252.77
466.69	2975.70
466.89	3321.81
467.10	2895.83
467.30	2852.82
467.50	3280.85
467.70	3069.91
467.90	3366.86
468.10	2688.98
468.30	3209.17
468.50	3172.30
468.70	2215.90
468.90	2691.03
469.10	3164.11
469.31	3936.20
469.51	2457.56
469.71	2041.82
469.91	3844.04
470.11	3260.37
470.31	2666.46
470.51	2125.79
470.71	3909.57
470.91	4460.48
471.11	2846.68
471.31	2656.22
471.51	3563.47
471.71	3569.61
471.92	3502.03
472.12	2326.49
472.32	3897.28
472.52	4177.86
472.72	2322.40
472.92	2521.05
473.12	3772.36
473.32	3301.33
473.52	2877.40
473.72	4802.49
473.92	3633.10
474.12	3817.41
474.32	2099.17
474.52	2650.07
474.72	3534.79
474.92	3033.04
475.13	3319.76
475.33	2631.64
475.53	3295.18
475.73	3766.21
475.93	2818.00
476.13	2220.00
476.33	3014.61
476.53	3397.58
476.73	2197.47
476.93	2373.60
477.13	3887.04
477.33	4468.67
477.53	2779.09
477.73	3184.59
477.93	2951.12
478.13	3176.40
478.33	2719.70
478.53	2869.20
478.73	3749.83
478.93	3373.00
479.13	2666.46
479.33	2365.40
479.53	3770.31
479.73	3332.05
479.93	2260.96
480.13	3135.44
480.33	3407.82
480.53	3610.57
480.73	2717.65
480.93	2602.97
481.13	3176.40
481.34	3160.02
481.54	2340.83
481.74	3063.76
481.94	3243.98
482.14	3463.12
482.34	3370.96
482.54	2789.33
482.74	3459.02
482.94	3487.69
483.14	2785.24
483.34	3321.81
483.54	3198.93
483.74	3977.16
483.94	2992.08
484.14	2664.41
484.34	3647.43
484.54	3151.82
484.74	2473.95
484.94	2932.69
485.14	3753.93
485.34	3614.66
485.54	3989.44
485.74	2351.07
485.93	4390.84
486.13	2961.36
486.33	2836.44
486.53	3307.47
486.73	3203.02
486.93	3540.94
487.13	2353.12
487.33	2756.57
487.53	3002.32
487.73	3135.44
487.93	2301.92
488.13	2877.40
488.33	3155.92
488.53	3659.72
488.73	2695.13
488.93	2306.01
489.13	3377.10
489.33	3125.20
489.53	3565.51
489.73	2867.16
489.93	4018.11
490.13	3215.31
490.33	2842.58
490.53	3133.39
490.73	3483.59
490.93	3088.34
491.13	1908.71
491.33	2023.39
491.53	3637.19
491.73	3608.52
491.93	3004.37
492.12	2826.20
492.32	3379.15
492.52	3207.12
492.72	2459.61
492.92	2351.07
493.12	3471.31
493.32	3545.03
493.52	2471.90
493.72	2164.70
493.92	3624.90
494.12	3141.58
494.32	3162.06
494.52	2461.66
494.72	3684.30
494.92	3094.48
495.12	2633.69
495.31	2287.58
495.51	3667.91
495.71	3411.92
495.91	3094.48
496.11	2936.79
496.31	3913.67
496.51	3641.29
496.71	2394.08
496.91	2717.65
497.11	3471.31
497.31	3164.11
497.51	2375.64
497.71	2609.11
497.90	2820.05
498.10	3921.86
498.30	3381.20
498.50	3035.09
498.70	4040.64
498.90	3330.00
499.10	2676.70
499.30	2193.37
499.50	3774.41
499.70	4853.69
499.89	2600.92
500.09	2877.40
500.29	3272.65
500.49	3563.47
500.69	2387.93
500.89	2897.88
501.09	3405.77
501.29	3596.23
501.49	4245.44
501.69	2703.32
501.88	4265.92
502.08	2971.60
502.28	2738.13
502.48	3364.81
502.68	4368.32
502.88	2844.63
503.08	2826.20
503.28	2566.10
503.47	3422.16
503.67	3778.50
503.87	2535.39
504.07	2772.95
504.27	3289.04
504.47	2887.64
504.67	2695.13
504.87	2338.78
505.06	3110.86
505.26	3485.64
505.46	1824.74
505.66	2684.89
505.86	3213.26
506.06	3428.30
506.26	2670.55
506.45	2072.54
506.65	3377.10
506.85	3874.76
507.05	2688.98
507.25	2437.08
507.45	3524.55
507.65	3938.24
507.84	2568.15
508.04	2981.84
508.24	3590.09
508.44	4198.34
508.64	2824.15
508.84	2308.06
509.04	3608.52
509.23	3270.61
509.43	2613.21
509.63	3362.76
509.83	3215.31
510.03	3086.29
510.23	2117.60
510.42	3151.82
510.62	3481.55
510.82	3270.61
511.02	2717.65
511.22	2125.79
511.42	3915.72
511.61	3340.24
511.81	2220.00
512.01	3176.40
512.21	3942.34
512.41	3733.45
512.60	1998.82
512.80	3035.09
513.00	3602.38
513.20	2895.83
513.40	2111.46
513.60	2867.16
513.79	4054.98
513.99	3471.31
514.19	2052.06
514.39	2740.18
514.59	3205.07
514.78	4212.67
514.98	2676.70
515.18	3348.43
515.38	4544.44
515.58	3444.68
515.77	3071.95
515.97	1966.05
516.17	3561.42
516.37	3215.31
516.57	3796.93
516.76	3141.58
516.96	3321.81
517.16	2889.68
517.36	2682.84
517.56	2590.68
517.75	3383.24
517.95	2895.83
518.15	3102.67
518.35	2944.98
518.55	3645.38
518.74	3581.90
518.94	2723.80
519.14	1941.47
519.34	3659.72
519.53	3330.00
519.73	3352.52
519.93	2523.10
520.13	3510.22
520.32	3528.65
520.52	2088.93
520.72	3954.63
520.92	3209.17
521.12	4454.33
521.31	3155.92
521.51	2535.39
521.71	2973.65
521.91	3962.82
522.10	2625.50
522.30	3485.64
522.50	3360.72
522.70	4519.87
522.89	2301.92
523.09	2461.66
523.29	3325.90
523.49	3030.99
523.68	2770.90
523.88	2688.98
524.08	4040.64
524.28	3106.77
524.47	2824.15
524.67	3788.74
524.87	2998.23
525.07	3774.41
525.26	3307.47
525.46	2543.58
525.66	3448.78
525.86	4614.07
526.05	2445.27
526.25	2887.64
526.45	3960.77
526.64	3106.77
526.84	2490.33
527.04	2602.97
527.24	4126.66
527.43	3749.83
527.63	2340.83
527.83	3418.06
528.03	3676.10
528.22	3968.96
528.42	2820.05
528.62	3723.21
528.81	4050.88
529.01	4140.99
529.21	3053.52
529.41	3051.47
529.60	3213.26
529.80	3463.12
530.00	3139.54
530.19	2861.01
530.39	3923.91
530.59	3913.67
530.79	2238.43
530.98	2758.61
531.18	2885.59
531.38	3393.48
531.57	3723.21
531.77	2172.89
531.97	3553.23
532.16	3200.98
532.36	2682.84
532.56	2406.36
532.76	3352.52
532.95	3737.54
533.15	4659.13
533.35	2564.06
533.54	3645.38
533.74	3338.19
533.94	3219.41
534.13	2127.84
534.33	3495.88
534.53	3907.52
534.72	3278.80
534.92	3088.34
535.12	3350.48
535.31	3307.47
535.51	2428.89
535.71	2494.43
535.90	3817.41
536.10	3301.33
536.30	3399.63
536.49	3094.48
536.69	3327.95
536.89	4138.94
537.08	2873.30
537.28	2568.15
537.48	3252.17
537.67	3026.90
537.87	3198.93
538.07	2461.66
538.26	3483.59
538.46	3651.53
538.66	2951.12
538.85	3297.23
539.05	3307.47
539.25	3454.92
539.44	3041.23
539.64	3137.49
539.84	4607.93
540.03	3215.31
540.23	3190.74
540.42	3119.06
540.62	4286.40
540.82	3422.16
541.01	2875.35
541.21	3215.31
541.41	3657.67
541.60	3045.33
541.80	3006.42
542.00	2424.80
542.19	3280.85
542.39	2897.88
542.58	2889.68
542.78	2441.18
542.98	3162.06
543.17	3358.67
543.37	4167.62
543.57	3217.36
543.76	3907.52
543.96	4591.55
544.15	2885.59
544.35	3422.16
544.55	3373.00
544.74	3028.95
544.94	3108.82
545.13	2324.44
545.33	4595.64
545.53	3923.91
545.72	2320.35
545.92	2430.94
546.11	3045.33
546.31	3108.82
546.51	2422.75
546.70	4085.70
546.90	3450.83
547.09	3190.74
547.29	2297.82
547.49	2531.29
547.68	3385.29
547.88	3086.29
548.07	2736.09
548.27	2627.54
548.47	3891.14
548.66	3340.24
548.86	2719.70
549.05	3229.65
549.25	2684.89
549.45	3442.64
549.64	2637.78
549.84	3547.08
550.03	3362.76
550.23	3893.19
550.42	2869.20
550.62	2226.14
550.82	3114.96
551.01	3485.64
551.21	2912.21
551.40	2455.51
551.60	2891.73
551.79	4136.90
551.99	2709.46
552.19	2265.05
552.38	2895.83
552.58	3067.86
552.77	2502.62
552.97	2752.47
553.16	3930.05
553.36	3692.49
553.55	2492.38
553.75	2854.87
553.95	3268.56
554.14	3612.62
554.34	3071.95
554.53	2676.70
554.73	3211.22
554.92	4554.68
555.12	2668.50
555.31	3004.37
555.51	3604.42
555.70	3119.06
555.90	2992.08
556.09	3332.05
556.29	2836.44
556.49	3254.22
556.68	4001.73
556.88	3184.59
557.07	3420.11
557.27	3215.31
557.46	3028.95
557.66	2963.41
557.85	2680.79
558.05	3704.78
558.24	2828.24
558.44	2734.04
558.63	3545.03
558.83	3254.22
559.02	2656.22
559.22	3217.36
559.41	3573.71
559.61	3278.80
559.80	2863.06
560.00	3004.37
560.19	2863.06
560.39	3030.99
560.58	2785.24
560.78	2754.52
560.97	3776.45
561.17	3071.95
561.36	3200.98
561.56	3426.25
561.75	3450.83
561.95	4007.87
562.14	2617.30
562.34	2664.41
562.53	3241.93
562.73	3837.89
562.92	2473.95
563.12	2301.92
563.31	3698.63
563.51	3936.20
563.70	3459.02
563.90	3221.45
564.09	2820.05
564.29	3459.02
564.48	2377.69
564.68	2551.77
564.87	3471.31
565.07	3096.53
565.26	2756.57
565.46	2154.46
565.65	3864.52
565.85	3119.06
566.04	2951.12
566.24	2678.74
566.43	4198.34
566.63	3127.25
566.82	2107.36
567.01	2392.03
567.21	3624.90
567.40	4429.76
567.60	3041.23
567.79	3307.47
567.99	3715.02
568.18	3184.59
568.38	2789.33
568.57	2803.67
568.77	3485.64
568.96	3643.34
569.15	2555.86
569.35	2185.18
569.54	4310.97
569.74	3338.19
569.93	2320.35
570.13	2766.81
570.32	3755.97
570.52	3635.14
570.71	3381.20
570.90	2236.38
571.10	4097.99
571.29	3182.54
571.49	2557.91
571.68	2357.21
571.88	3727.30
572.07	3522.51
572.26	2795.48
572.46	2232.29
572.65	3215.31
572.85	3364.81
573.04	2527.19
573.24	2088.93
573.43	3780.55
573.62	3295.18
573.82	2443.23
574.01	2500.57
574.21	3413.96
574.40	3289.04
574.59	3696.58
574.79	2635.74
574.98	3973.06
575.18	3860.42
575.37	2744.28
575.56	2797.53
575.76	2994.13
575.95	3880.90
576.15	2594.78
576.34	2506.71
576.53	3368.91
576.73	3334.09
576.92	2529.24
577.12	2111.46
577.31	4564.92
577.50	3792.84
577.70	2217.95
577.89	2373.60
578.09	3835.85
578.28	3391.44
578.47	1816.55
578.67	3483.59
578.86	3391.44
579.06	4085.70
579.25	2826.20
579.44	2557.91
579.64	3977.16
579.83	3155.92
580.02	3252.17
580.22	2473.95
580.41	3565.51
580.61	3598.28
580.80	3966.92
580.99	2643.93
581.19	4515.77
581.38	3076.05
581.57	3391.44
581.77	2521.05
581.96	2598.87
582.15	3135.44
582.35	2529.24
582.54	2478.04
582.73	4157.38
582.93	3022.80
583.12	2045.92
583.32	2512.86
583.51	3432.40
583.70	3723.21
583.90	2574.30
584.09	2275.29
584.28	3512.27
584.48	4042.69
584.67	2744.28
584.86	2930.64
585.06	3622.86
585.25	3483.59
585.44	2353.12
585.64	2316.25
585.83	3807.17
586.02	3528.65
586.22	2680.79
586.41	2410.46
586.60	3024.85
586.80	2822.10
586.99	3780.55
587.18	3061.71
587.38	4059.07
587.57	3612.62
587.76	3616.71
587.96	2850.77
588.15	3028.95
588.34	3067.86
588.53	2836.44
588.73	2844.63
588.92	2918.36
589.11	4122.56
589.31	3139.54
589.50	2936.79
589.69	4237.25
589.89	3196.88
590.08	3067.86
590.27	2133.98
590.47	4081.60
590.66	3223.50
590.85	2551.77
591.04	2275.29
591.24	3868.61
591.43	4224.96
591.62	2176.99
591.82	2332.64
592.01	2906.07
592.20	3788.74
592.39	3866.56
592.59	2543.58
592.78	3676.10
592.97	3450.83
593.17	2279.39
593.36	2783.19
593.55	4083.65
593.74	3583.95
593.94	2230.24
594.13	2191.33
594.32	3825.61
594.52	4366.27
594.71	3526.60
594.90	2336.73
595.09	3426.25
595.29	3117.01
595.48	2414.56
595.67	2013.15
595.86	3366.86
596.06	2789.33
596.25	3030.99
596.44	3678.15
596.63	2811.86
596.83	3608.52
597.02	2643.93
597.21	2439.13
597.40	4284.35
597.60	3217.36
597.79	3401.68
597.98	2473.95
598.17	4042.69
598.37	3639.24
598.56	3483.59
598.75	2113.50
598.94	3483.59
599.14	3424.20
599.33	2041.82
599.52	2531.29
599.71	3381.20
599.91	4126.66
600.10	2652.12
600.29	3309.52
600.48	3741.64
600.68	3323.85
600.87	3039.19
601.06	2125.79
601.25	3981.25
601.44	3962.82
601.64	2734.04
601.83	3889.09
602.02	3424.20
602.21	3250.13
602.41	3102.67
602.60	2863.06
602.79	3176.40
602.98	3016.66
603.17	2783.19
603.37	2164.70
603.56	3643.34
603.75	2924.50
603.94	2131.94
604.13	1996.77
604.33	3696.58
604.52	3149.78
604.71	2426.84
604.90	2744.28
605.09	3409.87
605.29	3735.50
605.48	3123.15
605.67	2740.18
605.86	3155.92
606.05	4270.01
606.25	3205.07
606.44	3059.67
606.63	3925.96
606.82	3809.22
607.01	3074.00
607.20	3258.32
607.40	3919.81
607.59	3768.26
607.78	3260.37
607.97	2717.65
608.16	3176.40
608.36	3542.99
608.55	2277.34
608.74	3135.44
608.93	4695.99
609.12	3182.54
609.31	2576.34
609.51	2731.99
609.70	3876.80
609.89	3002.32
610.08	2504.67
610.27	2142.18
610.46	4310.97
610.66	3583.95
610.85	3104.72
611.04	3745.73
611.23	3751.88
611.42	3719.11
611.61	2822.10
611.80	2713.56
612.00	4937.65
612.19	3338.19
612.38	2670.55
612.57	2793.43
612.76	4007.87
612.95	3739.59
613.14	2912.21
613.34	2906.07
613.53	3286.99
613.72	3327.95
613.91	2987.99
614.10	2797.53
614.29	3831.75
614.48	3563.47
614.67	2744.28
614.87	3954.63
615.06	3905.48
615.25	4345.79
615.44	3004.37
615.63	3110.86
615.82	2965.46
616.01	4036.55
616.20	2119.65
616.40	3897.28
616.59	3426.25
616.78	3252.17
616.97	3127.25
617.16	2643.93
617.35	4128.70
617.54	4089.79
617.73	3022.80
617.92	2363.36
618.12	3030.99
618.31	2934.74
618.50	3469.26
618.69	2930.64
618.88	3336.14
619.07	2963.41
619.26	3112.91
619.45	2695.13
619.64	2666.46
619.83	3456.97
620.02	2361.31
620.22	2781.14
620.41	3377.10
620.60	3086.29
620.79	2516.95
620.98	2314.20
621.17	2766.81
621.36	4421.56
621.55	2539.48
621.74	4716.47
621.93	3366.86
622.12	4503.48
622.31	2772.95
622.51	4259.78
622.70	3475.40
622.89	3848.13
623.08	2598.87
623.27	2713.56
623.46	3477.45
623.65	3381.20
623.84	2019.30
624.03	2432.99
624.22	4050.88
624.41	3534.79
624.60	2580.44
624.79	2084.83
624.98	3968.96
625.17	3250.13
625.36	2342.88
625.55	3610.57
625.74	3958.72
625.94	3397.58
626.13	2449.37
626.32	2174.94
626.51	3235.79
626.70	3715.02
626.89	2553.82
627.08	3325.90
627.27	2985.94
627.46	3958.72
627.65	2568.15
627.84	2848.72
628.03	2717.65
628.22	2973.65
628.41	3002.32
628.60	2291.68
628.79	3553.23
628.98	2815.96
629.17	2752.47
629.36	2400.22
629.55	3092.43
629.74	3413.96
629.93	2197.47
630.12	2498.52
630.31	3028.95
630.50	3385.29
630.69	3030.99
630.88	2977.75
631.07	3125.20
631.26	3639.24
631.45	2635.74
631.64	3352.52
631.83	3735.50
632.02	3993.54
632.21	3190.74
632.40	2707.41
632.59	3139.54
632.78	3403.72
632.97	2672.60
633.16	3952.58
633.35	3223.50
633.54	2959.31
633.73	2129.89
633.92	2586.58
634.11	3923.91
634.30	2996.18
634.49	2441.18
634.68	2822.10
634.87	3446.73
635.06	2781.14
635.25	2809.81
635.44	2504.67
635.63	3168.21
635.82	3205.07
636.01	2220.00
636.20	3540.94
636.39	3604.42
636.58	3258.32
636.77	3227.60
636.96	2555.86
637.15	2877.40
637.34	5418.93
637.53	3686.34
637.72	3057.62
637.91	3377.10
638.09	4151.23
638.28	2959.31
638.47	2265.05
638.66	3559.37
638.85	2709.46
639.04	3469.26
639.23	2289.63
639.42	3647.43
639.61	3260.37
639.80	2512.86
639.99	2138.08
640.18	3934.15
640.37	4765.62
640.56	1980.39
640.75	2353.12
640.94	3055.57
641.13	3362.76
641.32	3004.37
641.50	2412.51
641.69	3639.24
641.88	3446.73
642.07	2596.82
642.26	3354.57
642.45	3127.25
642.64	3489.74
642.83	2668.50
643.02	2918.36
643.21	2861.01
643.40	3119.06
643.59	2324.44
643.77	2367.45
643.96	3221.45
644.15	3225.55
644.34	3016.66
644.53	2248.67
644.72	3264.46
644.91	3239.89
645.10	4614.07
645.29	3370.96
645.48	3678.15
645.67	3055.57
645.85	2744.28
646.04	3633.10
646.23	3286.99
646.42	3252.17
646.61	2838.48
646.80	3276.75
646.99	3102.67
647.18	4706.23
647.37	2410.46
647.55	3074.00
647.74	3964.87
647.93	2922.45
648.12	2768.85
648.31	2959.31
648.50	4618.17
648.69	5613.48
648.88	3078.10
649.06	2359.26
649.25	2967.51
649.44	3438.54
649.63	2822.10
649.82	2977.75
650.01	3102.67
650.20	3993.54
650.39	2392.03
650.57	3561.42
650.76	3301.33
650.95	3665.86
651.14	2271.20
651.33	3008.47
651.52	2914.26
651.70	2854.87
651.89	2707.41
652.08	2369.50
652.27	3600.33
652.46	3370.96
652.65	2916.31
652.84	2639.83
653.02	3508.17
653.21	3223.50
653.40	2121.70
653.59	2613.21
653.78	3618.76
653.97	3332.05
654.15	2875.35
654.34	2447.32
654.53	2959.31
654.72	3653.58
654.91	2359.26
655.10	3811.27
655.28	3485.64
655.47	3506.12
655.66	2379.74
655.85	3772.36
656.04	3438.54
656.23	3000.27
656.41	3323.85
656.60	2781.14
656.79	4554.68
656.98	3876.80
657.17	2627.54
657.35	2543.58
657.54	3225.55
657.73	2975.70
657.92	2119.65
658.11	3454.92
658.29	3080.14
658.48	2873.30
658.67	2996.18
658.86	5029.81
659.05	3168.21
659.23	3895.24
659.42	3758.02
659.61	2498.52
659.80	3004.37
659.99	3307.47
660.17	2422.75
660.36	3342.28
660.55	3491.79
660.74	3448.78
660.92	2181.09
661.11	2592.73
661.30	4612.03
661.49	4296.64
661.68	1966.05
661.86	2496.47
662.05	4147.14
662.24	3346.38
662.43	3074.00
662.61	2553.82
662.80	3567.56
662.99	3018.71
663.18	2789.33
663.37	2701.27
663.55	3346.38
663.74	3876.80
663.93	2220.00
664.12	3633.10
664.30	3153.87
664.49	3258.32
664.68	2242.53
664.87	2314.20
665.05	3420.11
665.24	3678.15
665.43	3833.80
665.62	2680.79
665.80	3725.26
665.99	4470.72
666.18	2291.68
666.37	2764.76
666.55	2875.35
666.74	3700.68
666.93	2721.75
667.11	2109.41
667.30	3139.54
667.49	4722.62
667.68	2961.36
667.86	3299.28
668.05	4452.28
668.24	3841.99
668.43	2133.98
668.61	2330.59
668.80	3487.69
668.99	3512.27
669.17	2863.06
669.36	3600.33
669.55	4044.74
669.74	3413.96
669.92	3551.18
670.11	2562.01
670.30	3663.82
670.48	4915.12
670.67	3317.71
670.86	2158.56
671.05	2969.55
671.23	2977.75
671.42	2537.43
671.61	2369.50
671.79	3348.43
671.98	2944.98
672.17	2889.68
672.35	3813.32
672.54	3782.60
672.73	4071.36
672.91	2025.44
673.10	2363.36
673.29	3680.20
673.48	3342.28
673.66	2252.77
673.85	3035.09
674.04	3323.85
674.22	3594.19
674.41	3583.95
674.60	3678.15
674.78	3403.72
674.97	3252.17
675.16	3399.63
675.34	2236.38
675.53	4153.28
675.72	4528.06
675.90	2877.40
676.09	3205.07
676.28	3344.33
676.46	3844.04
676.65	2514.91
676.84	3035.09
677.02	4964.28
677.21	4538.30
677.40	3504.07
677.58	3149.78
677.77	3637.19
677.95	2768.85
678.14	2220.00
678.33	2947.03
678.51	3166.16
678.70	3307.47
678.89	2375.64
679.07	3188.69
679.26	3168.21
679.45	4009.92
679.63	3141.58
679.82	3504.07
680.01	3313.61
680.19	3127.25
680.38	3270.61
680.56	2267.10
680.75	3508.17
680.94	3213.26
681.12	3495.88
681.31	2858.96
681.50	2768.85
681.68	3530.70
681.87	3442.64
682.05	3241.93
682.24	4319.17
682.43	2944.98
682.61	2359.26
682.80	2535.39
682.98	3549.13
683.17	2861.01
683.36	3227.60
683.54	3547.08
683.73	3839.94
683.91	3928.00
684.10	3235.79
684.29	3127.25
684.47	2822.10
684.66	3653.58
684.84	2342.88
685.03	2965.46
685.22	4036.55
685.40	3729.35
685.59	2189.28
685.77	3966.92
685.96	3538.89
686.15	4122.56
686.33	2541.53
686.52	2574.30
686.70	3817.41
686.89	3710.92
687.07	3137.49
687.26	2045.92
687.45	3801.03
687.63	3504.07
687.82	3192.78
688.00	2564.06
688.19	3739.59
688.37	2969.55
688.56	2140.13
688.75	3274.70
688.93	4446.14
689.12	3764.17
689.30	2568.15
689.49	2789.33
689.67	3323.85
689.86	3610.57
690.04	2625.50
690.23	2158.56
690.42	3499.98
690.60	5121.97
690.79	2752.47
690.97	2502.62
691.16	3184.59
691.34	4224.96
691.53	3403.72
691.71	2955.22
691.90	3366.86
692.08	3360.72
692.27	2365.40
692.45	2676.70
692.64	2766.81
692.83	4241.34
693.01	3919.81
693.20	2963.41
693.38	3174.35
693.57	3885.00
693.75	2275.29
693.94	2340.83
694.12	3356.62
694.31	3024.85
694.49	2209.76
694.68	3966.92
694.86	4014.02
695.05	3688.39
695.23	2234.33
695.42	4208.58
695.60	4278.21
695.79	3841.99
695.97	2385.88
696.16	2306.01
696.34	2586.58
696.53	3190.74
696.71	2680.79
696.90	2088.93
697.08	3145.68
697.27	3366.86
697.45	1968.10
697.64	3051.47
697.82	4054.98
698.01	3389.39
698.19	3420.11
698.38	2191.33
698.56	3229.65
698.75	4065.22
698.93	2983.89
699.12	3321.81
699.30	3807.17
699.49	4378.56
699.67	3436.49
699.86	3192.78
700.04	2944.98
700.22	3690.44
700.41	2525.15
700.59	2865.11
700.78	3719.11
700.96	3549.13
701.15	2584.54
701.33	2910.16
701.52	3239.89
701.70	3405.77
701.89	2521.05
702.07	2414.56
702.26	3608.52
702.44	3712.97
702.62	2930.64
702.81	2269.15
702.99	3641.29
703.18	3256.27
703.36	3606.47
703.55	3143.63
703.73	3311.57
703.92	4032.45
704.10	2893.78
704.28	4116.42
704.47	3690.44
704.65	3012.56
704.84	2451.42
705.02	2363.36
705.21	4673.46
705.39	2979.79
705.57	2822.10
705.76	3344.33
705.94	3938.24
706.13	3534.79
706.31	1964.00
706.50	2658.26
706.68	3530.70
706.86	4638.65
707.05	2758.61
707.23	2402.27
707.42	4218.82
707.60	2844.63
707.78	3229.65
707.97	3563.47
708.15	3041.23
708.34	3524.55
708.52	1994.72
708.70	4241.34
708.89	3014.61
709.07	3925.96
709.26	2263.01
709.44	3391.44
709.62	3291.09
709.81	3274.70
709.99	2070.50
710.18	2529.24
710.36	3078.10
710.54	3864.52
710.73	2619.35
710.91	2926.55
711.10	3782.60
711.28	3643.34
711.46	2807.77
711.65	2619.35
711.83	3422.16
712.01	4011.97
712.20	2328.54
712.38	3069.91
712.57	3755.97
712.75	3356.62
712.93	3243.98
713.12	3592.14
713.30	3102.67
713.48	3397.58
713.67	2828.24
713.85	2432.99
714.03	4120.51
714.22	4016.07
714.40	3088.34
714.58	2584.54
714.77	4261.82
714.95	3561.42
715.14	2648.02
715.32	2662.36
715.50	3125.20
715.69	3940.29
715.87	2301.92
716.05	2666.46
716.24	3688.39
716.42	3952.58
716.60	2127.84
716.79	2512.86
716.97	3018.71
717.15	4157.38
717.34	2377.69
717.52	3067.86
717.70	3461.07
717.89	3233.74
718.07	2877.40
718.25	2176.99
718.44	4001.73
718.62	3741.64
718.80	3086.29
718.98	3002.32
719.17	4315.07
719.35	3661.77
719.53	3078.10
719.72	2619.35
719.90	4048.83
720.08	3530.70
720.27	2142.18
720.45	3874.76
720.63	3657.67
720.82	4114.37
721.00	3758.02
721.18	2707.41
721.36	3805.13
721.55	3958.72
721.73	2656.22
721.91	2697.17
722.10	3409.87
722.28	3530.70
722.46	2408.41
722.64	2078.69
722.83	3057.62
723.01	4165.57
723.19	2338.78
723.38	1947.62
723.56	3223.50
723.74	3870.66
723.92	2897.88
724.11	2547.67
724.29	3424.20
724.47	4036.55
724.65	3344.33
724.84	2191.33
725.02	4784.06
725.20	3633.10
725.39	1882.08
725.57	2338.78
725.75	4286.40
725.93	3588.04
726.12	3659.72
726.30	2500.57
726.48	3676.10
726.66	3624.90
726.85	2637.78
727.03	2799.57
727.21	4032.45
727.39	3995.59
727.58	3153.87
727.76	2686.94
727.94	3915.72
728.12	3047.38
728.30	2729.94
728.49	2691.03
728.67	2770.90
728.85	4061.12
729.03	2461.66
729.22	3280.85
729.40	3428.30
729.58	3332.05
729.76	2574.30
729.95	3870.66
730.13	3549.13
730.31	3336.14
730.49	3411.92
730.67	3348.43
730.86	3268.56
731.04	3581.90
731.22	2541.53
731.40	3250.13
731.58	4812.73
731.77	4698.04
731.95	2504.67
732.13	2840.53
732.31	3303.37
732.50	3618.76
732.68	2373.60
732.86	3119.06
733.04	3411.92
733.22	3885.00
733.40	2400.22
733.59	2736.09
733.77	3893.19
733.95	3387.34
734.13	2926.55
734.31	2752.47
734.50	4163.52
734.68	4102.08
734.86	2568.15
735.04	2328.54
735.22	3567.56
735.41	3575.75
735.59	2877.40
735.77	3301.33
735.95	4558.78
736.13	2813.91
736.31	2961.36
736.50	2824.15
736.68	5470.12
736.86	3887.04
737.04	2467.80
737.22	3086.29
737.40	3102.67
737.59	4634.55
737.77	3508.17
737.95	2645.98
738.13	3424.20
738.31	3592.14
738.49	3133.39
738.67	2957.27
738.86	3076.05
739.04	4300.73
739.22	3389.39
739.40	2543.58
739.58	3157.97
739.76	3585.99
739.94	2463.71
740.13	3194.83
740.31	3272.65
740.49	3219.41
740.67	2770.90
740.85	2230.24
741.03	3123.15
741.21	4448.19
741.39	2445.27
741.58	2430.94
741.76	4190.14
741.94	3291.09
742.12	3446.73
742.30	2783.19
742.48	3868.61
742.66	3719.11
742.84	2535.39
743.03	2607.06
743.21	3723.21
743.39	3944.39
743.57	3643.34
743.75	2652.12
743.93	3256.27
744.11	3964.87
744.29	2793.43
744.47	2650.07
744.65	3710.92
744.84	4347.84
745.02	2398.17
745.20	2584.54
745.38	3057.62
745.56	3579.85
745.74	2693.08
745.92	2521.05
746.10	3149.78
746.28	2920.40
746.46	3831.75
746.64	2400.22
746.82	3690.44
747.01	3209.17
747.19	2351.07
747.37	2658.26
747.55	4007.87
747.73	3594.19
747.91	2287.58
748.09	2703.32
748.27	3176.40
748.45	4313.02
748.63	3035.09
748.81	2506.71
748.99	3033.04
749.17	3946.44
749.35	2312.16
749.53	2455.51
749.72	3618.76
749.90	3581.90
750.08	3229.65
750.26	2904.02
750.44	3481.55
750.62	4749.24
750.80	2377.69
750.98	2176.99
751.16	3043.28
751.34	3690.44
751.52	2934.74
751.70	2412.51
751.88	3717.06
752.06	4069.31
752.24	2195.42
752.42	3739.59
752.60	3874.76
752.78	3110.86
752.96	1931.23
753.14	4552.63
753.32	3966.92
753.50	4347.84
753.68	2113.50
753.86	2256.86
754.04	3684.30
754.22	3987.40
754.40	2881.49
754.58	2691.03
754.76	3637.19
754.94	3366.86
755.12	4353.98
755.30	2906.07
755.48	3301.33
755.66	3588.04
755.84	1978.34
756.02	2549.72
756.20	3887.04
756.38	3340.24
756.56	3360.72
756.74	2469.85
756.92	3712.97
757.10	3317.71
757.28	2093.02
757.46	2328.54
757.64	4245.44
757.82	3366.86
758.00	2842.58
758.18	2652.12
758.36	4073.41
758.54	3667.91
758.72	3045.33
758.90	2627.54
759.08	3866.56
759.26	3585.99
759.44	2475.99
759.62	3749.83
759.80	3676.10
759.98	3373.00
760.16	2512.86
760.34	2762.71
760.52	4464.57
760.70	3545.03
760.88	1902.56
761.06	1808.36
761.24	3395.53
761.42	4122.56
761.60	2445.27
761.77	2138.08
761.95	4157.38
762.13	3819.46
762.31	2107.36
762.49	2803.67
762.67	3649.48
762.85	3612.62
763.03	2222.05
763.21	2818.00
763.39	4347.84
763.57	3629.00
763.75	3733.45
763.93	4126.66
764.11	3143.63
764.29	3710.92
764.46	2674.65
764.64	2643.93
764.82	3108.82
765.00	3538.89
765.18	3405.77
765.36	2791.38
765.54	3346.38
765.72	3061.71
765.90	2138.08
766.08	2811.86
766.26	3819.46
766.44	4454.33
766.61	2410.46
766.79	2439.13
766.97	3485.64
767.15	3495.88
767.33	2367.45
767.51	2830.29
767.69	3858.37
767.87	3286.99
768.05	3151.82
768.22	3626.95
768.40	3489.74
768.58	3454.92
768.76	2652.12
768.94	2430.94
769.12	3700.68
769.30	4028.35
769.48	2944.98
769.66	3008.47
769.83	3090.38
770.01	3502.03
770.19	2652.12
770.37	3360.72
770.55	3325.90
770.73	3585.99
770.91	2365.40
771.09	2236.38
771.26	4067.27
771.44	5109.68
771.62	2629.59
771.80	3639.24
771.98	3694.54
772.16	3968.96
772.34	2619.35
772.51	2830.29
772.69	3764.17
772.87	3854.28
773.05	4065.22
773.23	3059.67
773.41	3979.20
773.58	5095.35
773.76	2947.03
773.94	2119.65
774.12	3555.27
774.30	3905.48
774.48	3127.25
774.65	2797.53
774.83	3717.06
775.01	3092.43
775.19	3479.50
775.37	3610.57
775.55	4177.86
775.72	3592.14
775.90	3403.72
776.08	3344.33
776.26	4388.80
776.44	5283.76
776.61	2867.16
776.79	2987.99
776.97	3018.71
777.15	3411.92
777.33	2105.31
777.51	1937.38
777.68	3641.29
777.86	3278.80
778.04	3573.71
778.22	3608.52
778.40	4409.28
778.57	4007.87
778.75	2969.55
778.93	2979.79
779.11	4310.97
779.29	3424.20
779.46	2398.17
779.64	2834.39
779.82	4614.07
780.00	3448.78
780.17	2785.24
780.35	2557.91
780.53	3751.88
780.71	3846.09
780.89	2885.59
781.06	2781.14
781.24	3258.32
781.42	3772.36
781.60	3129.30
781.77	3100.62
781.95	4022.21
782.13	3499.98
782.31	2250.72
782.48	2848.72
782.66	3096.53
782.84	3719.11
783.02	2625.50
783.19	3440.59
783.37	4075.46
783.55	3686.34
783.73	2260.96
783.90	4429.76
784.08	3702.73
784.26	4470.72
784.44	2914.26
784.61	3514.31
784.79	3432.40
784.97	3506.12
785.15	4300.73
785.32	3145.68
785.50	4241.34
785.68	3977.16
785.86	3373.00
786.03	3305.42
786.21	3385.29
786.39	4552.63
786.57	3778.50
786.74	3133.39
786.92	4595.64
787.10	3805.13
787.27	3502.03
787.45	2531.29
787.63	3837.89
787.81	4390.84
787.98	2570.20
788.16	3039.19
788.34	4667.32
788.51	4417.47
788.69	2920.40
788.87	3934.15
789.04	3848.13
789.22	4683.70
789.40	2693.08
789.58	2996.18
789.75	3160.02
789.93	3516.36
790.11	2699.22
790.28	2467.80
790.46	3553.23
790.64	3909.57
790.81	2297.82
790.99	3237.84
791.17	3604.42
791.34	4591.55
791.52	3020.75
791.70	2766.81
791.87	3964.87
792.05	3522.51
792.23	2899.92
792.40	2930.64
792.58	3063.76
792.76	4220.86
792.93	3219.41
793.11	3272.65
793.29	4243.39
793.46	4089.79
793.64	3194.83
793.82	3061.71
793.99	3653.58
794.17	3309.52
794.35	2680.79
794.52	3186.64
794.70	3174.35
794.88	4315.07
795.05	3508.17
795.23	2457.56
795.41	4057.03
795.58	2846.68
795.76	3540.94
795.94	2082.78
796.11	3452.88
796.29	3448.78
796.46	2926.55
796.64	3264.46
796.82	3745.73
796.99	3784.65
797.17	2598.87
797.35	3143.63
797.52	4011.97
797.70	4753.34
797.87	3436.49
798.05	3633.10
798.23	3616.71
798.40	3336.14
798.58	2207.71
798.76	2775.00
798.93	3930.05
799.11	3483.59
799.28	2830.29
799.46	2992.08
799.64	3950.53
799.81	4298.69
799.99	2396.12
800.16	2936.79
800.34	4294.59
800.52	3397.58
800.69	2705.37
800.87	2922.45
801.04	3688.39
801.22	3790.79
801.39	2535.39
801.57	2207.71
801.75	3721.16
801.92	4077.51
802.10	3137.49
802.27	3819.46
802.45	4876.21
802.63	3938.24
802.80	4896.69
802.98	2525.15
803.15	3749.83
803.33	3493.83
803.50	2533.34
803.68	2906.07
803.86	4116.42
804.03	3923.91
804.21	3389.39
804.38	3065.81
804.56	4220.86
804.73	5187.50
804.91	2703.32
805.08	3151.82
805.26	3489.74
805.44	3074.00
805.61	2551.77
805.79	3018.71
805.96	3567.56
806.14	4241.34
806.31	2299.87
806.49	3336.14
806.66	4435.90
806.84	3721.16
807.01	4140.99
807.19	2457.56
807.36	4011.97
807.54	4159.42
807.71	2349.02
807.89	3166.16
808.07	3497.93
808.24	4605.88
808.42	2750.42
808.59	3493.83
808.77	4036.55
808.94	3837.89
809.12	2674.65
809.29	2662.36
809.47	3774.41
809.64	3041.23
809.82	3110.86
809.99	2539.48
810.17	4218.82
810.34	4028.35
810.52	2543.58
810.69	2607.06
810.87	3424.20
811.04	3530.70
811.22	3264.46
811.39	2652.12
811.57	4405.18
811.74	4261.82
811.92	2463.71
812.09	3901.38
812.27	3407.82
812.44	3411.92
812.62	2750.42
812.79	3166.16
812.97	3540.94
813.14	3454.92
813.31	2449.37
813.49	2934.74
813.66	3626.95
813.84	3921.86
814.01	2375.64
814.19	2529.24
814.36	4003.78
814.54	3291.09
814.71	1949.67
814.89	3538.89
815.06	3817.41
815.24	3053.52
815.41	3237.84
815.58	3811.27
815.76	4644.79
815.93	4169.66
816.11	2664.41
816.28	2287.58
816.46	4523.96
816.63	3125.20
816.81	2269.15
816.98	2627.54
817.15	3788.74
817.33	3919.81
817.50	2357.21
817.68	2527.19
817.85	3547.08
818.03	2963.41
818.20	2183.13
818.37	2863.06
818.55	3323.85
818.72	3284.94
818.90	2836.44
819.07	2832.34
819.25	4810.68
819.42	4097.99
819.59	2340.83
819.77	2703.32
819.94	4865.97
820.12	4984.76
820.29	3391.44
820.46	3131.34
820.64	3686.34
820.81	3528.65
820.99	3524.55
821.16	3749.83
821.33	3817.41
821.51	4204.48
821.68	2906.07
821.86	4366.27
822.03	3952.58
822.20	4169.66
822.38	4116.42
822.55	2822.10
822.73	3223.50
822.90	4276.16
823.07	2095.07
823.25	2895.83
823.42	3778.50
823.59	3766.21
823.77	2727.89
823.94	3487.69
824.12	3682.25
824.29	3747.78
824.46	3708.87
824.64	3487.69
824.81	3381.20
824.98	3971.01
825.16	2897.88
825.33	2754.52
825.50	3805.13
825.68	5060.53
825.85	3473.36
826.03	3016.66
826.20	3475.40
826.37	4192.19
826.55	4128.70
826.72	3053.52
826.89	4351.93
827.07	3504.07
827.24	3241.93
827.41	3246.03
827.59	2848.72
827.76	3528.65
827.93	2355.16
828.11	3272.65
828.28	3774.41
828.45	4278.21
828.63	2469.85
828.80	2572.25
828.97	3407.82
829.15	3977.16
829.32	2842.58
829.49	2904.02
829.67	3524.55
829.84	3897.28
830.01	2844.63
830.18	2758.61
830.36	3348.43
830.53	3422.16
830.70	3471.31
830.88	2883.54
831.05	4616.12
831.22	4575.16
831.40	2316.25
831.57	2930.64
831.74	3905.48
831.91	3049.43
832.09	2531.29
832.26	3499.98
832.43	4143.04
832.61	3733.45
832.78	2914.26
832.95	2432.99
833.13	4128.70
833.30	3248.08
833.47	3786.69
833.64	2838.48
833.82	4425.66
833.99	3381.20
834.16	2738.13
834.33	2480.09
834.51	3798.98
834.68	3794.89
834.85	3157.97
835.03	3133.39
835.20	3424.20
835.37	3839.94
835.54	2885.59
835.72	3579.85
835.89	3104.72
836.06	4005.83
836.23	3114.96
836.41	3272.65
836.58	4278.21
836.75	4167.62
836.92	2729.94
837.10	3041.23
837.27	3979.20
837.44	4978.61
837.61	3747.78
837.78	3346.38
837.96	4564.92
838.13	3782.60
838.30	4175.81
838.47	3844.04
838.65	3250.13
838.82	3473.36
838.99	3028.95
839.16	2699.22
839.34	3274.70
839.51	4224.96
839.68	3334.09
839.85	2783.19
840.02	3532.75
840.20	3776.45
840.37	3782.60
840.54	3239.89
840.71	4370.37
840.88	3790.79
841.06	2824.15
841.23	3084.24
841.40	4249.54
841.57	5760.94
841.74	2598.87
841.92	3553.23
842.09	3712.97
842.26	4077.51
842.43	2383.84
842.60	2643.93
842.78	4526.01
842.95	3223.50
843.12	2797.53
843.29	3278.80
843.46	3430.35
843.64	3821.51
843.81	2500.57
843.98	4120.51
844.15	4378.56
844.32	4536.25
844.49	2385.88
844.67	2996.18
844.84	3321.81
845.01	3198.93
845.18	2467.80
845.35	3209.17
845.52	3121.10
845.70	4515.77
845.87	2594.78
846.04	2543.58
846.21	3196.88
846.38	3639.24
846.55	2306.01
846.72	2547.67
846.90	4061.12
847.07	3823.56
847.24	2867.16
847.41	2586.58
847.58	3639.24
847.75	3952.58
847.92	2164.70
848.10	3221.45
848.27	3041.23
848.44	4069.31
848.61	2781.14
848.78	2660.31
848.95	3907.52
849.12	3121.10
849.29	2965.46
849.47	2994.13
849.64	4505.53
849.81	4360.13
849.98	3203.02
850.15	2707.41
850.32	3151.82
850.49	3776.45
850.66	2279.39
850.84	3360.72
851.01	3715.02
851.18	3604.42
851.35	2639.83
851.52	2598.87
851.69	4194.24
851.86	3610.57
852.03	2672.60
852.20	2525.15
852.37	3475.40
852.54	3870.66
852.72	2879.44
852.89	3530.70
853.06	3305.42
853.23	3676.10
853.40	2656.22
853.57	2504.67
853.74	3549.13
853.91	4263.87
854.08	2715.61
854.25	2279.39
854.42	3440.59
854.59	3557.32
854.76	2361.31
854.94	2691.03
855.11	3618.76
855.28	3176.40
855.45	3000.27
855.62	2867.16
855.79	4048.83
855.96	3723.21
856.13	2770.90
856.30	2490.33
856.47	3669.96
856.64	4620.22
856.81	3997.64
856.98	3635.14
857.15	3991.49
857.32	3497.93
857.49	2637.78
857.66	2224.09
857.83	3676.10
858.00	4437.95
858.17	3811.27
858.35	4194.24
858.52	4509.63
858.69	4116.42
858.86	2265.05
859.03	2635.74
859.20	3348.43
859.37	3067.86
859.54	2203.61
859.71	4499.39
859.88	4001.73
860.05	3819.46
860.22	2811.86
860.39	3502.03
860.56	2987.99
860.73	4474.81
860.90	2420.70
861.07	3151.82
861.24	3319.76
861.41	3033.04
861.58	2363.36
861.75	2920.40
861.92	3741.64
862.09	4155.33
862.26	2670.55
862.43	2504.67
862.60	3467.21
862.77	3712.97
862.94	2551.77
863.11	2846.68
863.28	3762.12
863.45	4151.23
863.62	2684.89
863.79	2602.97
863.96	4806.58
864.13	3520.46
864.30	2932.69
864.46	2226.14
864.63	3182.54
864.80	3117.01
864.97	3585.99
865.14	2650.07
865.31	3299.28
865.48	3018.71
865.65	3176.40
865.82	2275.29
865.99	4984.76
866.16	4147.14
866.33	3430.35
866.50	2879.44
866.67	5261.23
866.84	3182.54
867.01	3114.96
867.18	2977.75
867.35	3862.47
867.52	3313.61
867.69	2758.61
867.85	2602.97
868.02	3817.41
868.19	3915.72
868.36	2529.24
868.53	2508.76
868.70	4356.03
868.87	3821.51
869.04	2797.53
869.21	3084.24
869.38	3780.55
869.55	4175.81
869.72	3033.04
869.89	2242.53
870.05	3551.18
870.22	3946.44
870.39	2805.72
870.56	3196.88
870.73	3737.54
870.90	4708.28
871.07	2344.92
871.24	2539.48
871.41	3968.96
871.58	3495.88
871.74	2267.10
871.91	2508.76
872.08	3477.45
872.25	3243.98
872.42	2492.38
872.59	2519.00
872.76	3768.26
872.93	3602.38
873.10	3784.65
873.26	3006.42
873.43	3637.19
873.60	4601.79
873.77	2291.68
873.94	2930.64
874.11	3528.65
874.28	3352.52
874.45	2576.34
874.61	2695.13
874.78	3366.86
874.95	3696.58
875.12	2713.56
875.29	3121.10
875.46	3334.09
875.63	4202.43
875.79	2973.65
875.96	2367.45
876.13	3725.26
876.30	3215.31
876.47	2777.05
876.64	3536.84
876.80	3872.71
876.97	4786.10
877.14	2299.87
877.31	2779.09
877.48	3074.00
877.65	4820.92
877.81	2901.97
877.98	2318.30
878.15	3114.96
878.32	4003.78
878.49	4071.36
878.66	3041.23
878.82	4089.79
878.99	4526.01
879.16	2357.21
879.33	3282.89
879.50	4169.66
879.67	3741.64
879.83	3702.73
880.00	3352.52
880.17	3477.45
880.34	3407.82
880.51	3227.60
880.67	3233.74
880.84	3715.02
881.01	3317.71
881.18	2529.24
881.35	2252.77
881.51	3551.18
881.68	4749.24
881.85	3149.78
882.02	3104.72
882.18	3321.81
882.35	3823.56
882.52	3231.69
882.69	2881.49
882.86	4327.36
883.02	3375.05
883.19	2365.40
883.36	3366.86
883.53	3389.39
883.69	3667.91
883.86	2621.40
884.03	3340.24
884.20	3995.59
884.36	3397.58
884.53	3305.42
884.70	3119.06
884.87	3575.75
885.04	3979.20
885.20	3919.81
885.37	3344.33
885.54	3446.73
885.71	4005.83
885.87	3653.58
886.04	2332.64
886.21	4566.97
886.38	3979.20
886.54	3184.59
886.71	2463.71
886.88	3147.73
>>>>>End Processed Spectral Data<<<<<
