SpectraSuite Data File
++++++++++++++++++++++++++++++++++++
Date: Fri Apr 17 15:38:16 EST 2015
User: root
Dark Spectrum Present: No
Reference Spectrum Present: No
Number of Sampled Component Spectra: 1
Spectrometers: USB4E02642
Integration Time (usec): 8000000 (USB4E02642)
Spectra Averaged: 1 (USB4E02642)
Boxcar Smoothing: 0 (USB4E02642)
Correct for Electrical Dark: No (USB4E02642)
Strobe/Lamp Enabled: No (USB4E02642)
Correct for Detector Non-linearity: No (USB4E02642)
Correct for Stray Light: No (USB4E02642)
Number of Pixels in Processed Spectrum: 3648
>>>>>Begin Processed Spectral Data<<<<<
179.22	1001.46
179.43	1001.46
179.65	1001.46
179.86	931.83
180.08	921.59
180.29	4415.42
180.51	2680.79
180.72	4507.58
180.94	5181.36
181.15	2705.37
181.37	6090.66
181.58	3930.05
181.80	6354.85
182.01	3917.76
182.23	4448.19
182.44	4507.58
182.66	5552.04
182.87	3977.16
183.09	4612.03
183.30	4405.18
183.52	4478.91
183.73	3987.40
183.95	3907.52
184.16	4089.79
184.38	5408.69
184.59	3946.44
184.81	3373.00
185.02	3905.48
185.24	4255.68
185.45	3178.45
185.67	4001.73
185.88	5027.76
186.10	4677.56
186.31	3561.42
186.53	4976.56
186.74	4417.47
186.96	5803.94
187.17	3450.83
187.39	2877.40
187.60	5777.32
187.81	6807.45
188.03	3037.14
188.24	5326.77
188.46	4827.06
188.67	5134.26
188.89	4458.43
189.10	3467.21
189.32	6795.16
189.53	4190.14
189.75	4595.64
189.96	7577.48
190.18	7157.65
190.39	4208.58
190.61	4022.21
190.82	2975.70
191.04	4153.28
191.25	5795.75
191.46	4157.38
191.68	3106.77
191.89	5662.63
192.11	4032.45
192.32	5099.44
192.54	3624.90
192.75	4550.59
192.97	6530.97
193.18	4939.70
193.40	5078.96
193.61	8034.18
193.83	4579.26
194.04	4421.56
194.25	5992.36
194.47	6535.07
194.68	4261.82
194.90	3561.42
195.11	4868.02
195.33	5361.58
195.54	6993.81
195.76	5605.29
195.97	6596.51
196.18	5758.89
196.40	5355.44
196.61	3923.91
196.83	5048.24
197.04	4614.07
197.26	5271.47
197.47	6066.08
197.69	3459.02
197.90	5285.81
198.11	4487.10
198.33	4683.70
198.54	4474.81
198.76	5169.07
198.97	5814.18
199.19	3839.94
199.40	2809.81
199.61	4470.72
199.83	4388.80
200.04	4796.34
200.26	4917.17
200.47	4786.10
200.69	4927.41
200.90	4241.34
201.11	5533.61
201.33	5031.86
201.54	5736.36
201.76	5734.31
201.97	5207.98
202.19	5513.13
202.40	6014.88
202.61	5040.05
202.83	3157.97
203.04	5582.76
203.26	5130.16
203.47	6307.74
203.68	6666.14
203.90	3905.48
204.11	5803.94
204.33	4052.93
204.54	5154.74
204.75	5259.18
204.97	4509.63
205.18	3114.96
205.40	3536.84
205.61	4517.82
205.83	7190.42
206.04	3147.73
206.25	4220.86
206.47	6961.05
206.68	8566.65
206.90	4364.22
207.11	4198.34
207.32	4876.21
207.54	5601.19
207.75	3389.39
207.97	2576.34
208.18	4835.25
208.39	5115.83
208.61	3948.48
208.82	7423.89
209.03	5959.59
209.25	5781.42
209.46	3309.52
209.68	3655.62
209.89	4802.49
210.10	4444.09
210.32	4495.29
210.53	3518.41
210.75	4618.17
210.96	5255.09
211.17	5685.16
211.39	3825.61
211.60	4042.69
211.82	5087.15
212.03	4417.47
212.24	3669.96
212.46	5238.70
212.67	5443.50
212.88	4112.32
213.10	3747.78
213.31	4681.66
213.53	5078.96
213.74	3108.82
213.95	6369.18
214.17	4687.80
214.38	5164.98
214.59	4415.42
214.81	4945.84
215.02	6258.59
215.23	4648.89
215.45	3755.97
215.66	4900.79
215.88	4554.68
216.09	4018.11
216.30	4802.49
216.52	3467.21
216.73	3166.16
216.94	5765.03
217.16	4448.19
217.37	5904.29
217.58	4589.50
217.80	6217.63
218.01	4018.11
218.22	6657.95
218.44	4669.37
218.65	3760.07
218.87	3790.79
219.08	3514.31
219.29	7171.99
219.51	5124.02
219.72	2963.41
219.93	3303.37
220.15	5042.10
220.36	4853.69
220.57	4130.75
220.79	3887.04
221.00	3577.80
221.21	6420.38
221.43	3964.87
221.64	3579.85
221.85	5494.70
222.07	6242.21
222.28	3549.13
222.49	5144.50
222.71	5558.19
222.92	4409.28
223.13	3057.62
223.35	2779.09
223.56	3966.92
223.77	5537.71
223.99	4593.59
224.20	5996.45
224.41	4609.98
224.63	6201.25
224.84	5525.42
225.05	3596.23
225.27	5580.71
225.48	4304.83
225.69	3131.34
225.91	3848.13
226.12	5105.59
226.33	7503.76
226.55	2867.16
226.76	3749.83
226.97	5068.72
227.19	4831.16
227.40	5607.34
227.61	5046.20
227.82	6358.94
228.04	4743.10
228.25	4683.70
228.46	5248.94
228.68	6117.28
228.89	4614.07
229.10	5113.78
229.32	4087.75
229.53	4939.70
229.74	5636.01
229.96	3764.17
230.17	3160.02
230.38	7276.43
230.59	3301.33
230.81	3563.47
231.02	4614.07
231.23	3657.67
231.45	4483.00
231.66	3735.50
231.87	5519.28
232.09	4339.65
232.30	5027.76
232.51	4415.42
232.72	2977.75
232.94	4159.42
233.15	7090.07
233.36	3119.06
233.58	4448.19
233.79	3907.52
234.00	5545.90
234.21	4239.30
234.43	3739.59
234.64	4081.60
234.85	4540.35
235.07	2887.64
235.28	4347.84
235.49	6002.60
235.70	5248.94
235.92	4136.90
236.13	5031.86
236.34	5775.27
236.56	4876.21
236.77	4087.75
236.98	3579.85
237.19	5250.99
237.41	5650.35
237.62	3741.64
237.83	4102.08
238.04	5105.59
238.26	6297.50
238.47	8357.76
238.68	4591.55
238.89	4462.52
239.11	9484.14
239.32	4667.32
239.53	4765.62
239.75	4067.27
239.96	3762.12
240.17	3629.00
240.38	3452.88
240.60	4794.29
240.81	5113.78
241.02	3653.58
241.23	3477.45
241.45	4802.49
241.66	4327.36
241.87	4001.73
242.08	7292.82
242.30	3440.59
242.51	4765.62
242.72	4134.85
242.93	5156.79
243.15	5130.16
243.36	4951.99
243.57	2863.06
243.78	5775.27
244.00	4941.75
244.21	3252.17
244.42	4685.75
244.63	5488.56
244.85	4673.46
245.06	3717.06
245.27	4151.23
245.48	2627.54
245.70	4200.38
245.91	5451.69
246.12	5294.00
246.33	4689.85
246.54	6350.75
246.76	3360.72
246.97	4038.59
247.18	5015.48
247.39	5298.10
247.61	6250.40
247.82	3631.05
248.03	3774.41
248.24	7837.58
248.45	6119.33
248.67	4204.48
248.88	4732.86
249.09	5525.42
249.30	5269.42
249.52	5652.39
249.73	6053.80
249.94	4904.89
250.15	7425.93
250.36	4681.66
250.58	4143.04
250.79	5019.57
251.00	4536.25
251.21	5283.76
251.43	2858.96
251.64	7548.81
251.85	4087.75
252.06	4626.36
252.27	3952.58
252.49	5140.40
252.70	4151.23
252.91	4657.08
253.12	3418.06
253.33	5681.07
253.55	4222.91
253.76	2844.63
253.97	3407.82
254.18	4734.90
254.39	6012.84
254.61	2971.60
254.82	4872.12
255.03	5693.35
255.24	4937.65
255.45	3190.74
255.67	3450.83
255.88	4155.33
256.09	3518.41
256.30	3788.74
256.51	6350.75
256.73	6244.26
256.94	4886.45
257.15	5982.12
257.36	3766.21
257.57	6252.45
257.78	4263.87
258.00	3452.88
258.21	5484.46
258.42	5742.50
258.63	4636.60
258.84	3663.82
259.06	4478.91
259.27	4272.06
259.48	5400.49
259.69	4743.10
259.90	2648.02
260.11	5259.18
260.33	3864.52
260.54	3747.78
260.75	4646.84
260.96	4089.79
261.17	4067.27
261.38	5949.35
261.60	4804.53
261.81	4374.46
262.02	6471.58
262.23	5369.77
262.44	6006.69
262.65	4753.34
262.87	6272.93
263.08	4413.37
263.29	3731.40
263.50	4466.62
263.71	5314.48
263.92	5322.67
264.13	5621.67
264.35	3805.13
264.56	5308.34
264.77	4691.90
264.98	4030.40
265.19	3672.01
265.40	5699.50
265.62	4325.31
265.83	4386.75
266.04	4546.49
266.25	7073.68
266.46	5525.42
266.67	3674.06
266.88	4720.57
267.10	5969.83
267.31	6406.05
267.52	4081.60
267.73	5261.23
267.94	3672.01
268.15	5183.41
268.36	3833.80
268.57	3811.27
268.79	6180.77
269.00	5795.75
269.21	2840.53
269.42	3616.71
269.63	3489.74
269.84	4200.38
270.05	3852.23
270.27	6432.67
270.48	4892.60
270.69	3921.86
270.90	3104.72
271.11	4343.74
271.32	5697.45
271.53	4964.28
271.74	4194.24
271.96	4808.63
272.17	4134.85
272.38	3858.37
272.59	2543.58
272.80	4403.13
273.01	4786.10
273.22	4300.73
273.43	3522.51
273.64	3413.96
273.86	6033.32
274.07	3682.25
274.28	2947.03
274.49	7532.43
274.70	5339.05
274.91	4962.23
275.12	3966.92
275.33	4503.48
275.54	3715.02
275.76	3659.72
275.97	3117.01
276.18	4245.44
276.39	5011.38
276.60	2963.41
276.81	4939.70
277.02	5334.96
277.23	5330.86
277.44	3653.58
277.65	4622.27
277.86	4130.75
278.08	5599.15
278.29	5574.57
278.50	4274.11
278.71	3508.17
278.92	5164.98
279.13	4442.04
279.34	4005.83
279.55	4431.80
279.76	5058.48
279.97	3862.47
280.18	5715.88
280.40	5232.56
280.61	4087.75
280.82	2750.42
281.03	4446.14
281.24	4700.09
281.45	4960.18
281.66	3966.92
281.87	6047.65
282.08	4835.25
282.29	5289.90
282.50	2269.15
282.71	2709.46
282.92	4214.72
283.13	4280.25
283.35	3962.82
283.56	3471.31
283.77	5158.83
283.98	4319.17
284.19	2922.45
284.40	3446.73
284.61	4036.55
284.82	4394.94
285.03	5496.75
285.24	4239.30
285.45	4730.81
285.66	4849.59
285.87	5101.49
286.08	4689.85
286.29	4581.31
286.50	6219.68
286.71	6184.87
286.93	5091.25
287.14	4931.51
287.35	4093.89
287.56	5283.76
287.77	4057.03
287.98	4300.73
288.19	4749.24
288.40	3538.89
288.61	3563.47
288.82	4329.41
289.03	6530.97
289.24	3565.51
289.45	4816.82
289.66	4925.36
289.87	4798.39
290.08	3901.38
290.29	3946.44
290.50	6115.23
290.71	5353.39
290.92	6311.84
291.13	4009.92
291.34	5220.27
291.55	4083.65
291.76	4140.99
291.97	3667.91
292.18	4917.17
292.39	4872.12
292.61	2523.10
292.82	3219.41
293.03	6236.06
293.24	4976.56
293.45	4097.99
293.66	6756.25
293.87	5982.12
294.08	4505.53
294.29	4427.71
294.50	2676.70
294.71	5834.66
294.92	4603.83
295.13	3889.09
295.34	5443.50
295.55	5814.18
295.76	4231.10
295.97	5052.34
296.18	4773.82
296.39	5666.73
296.60	4751.29
296.81	5482.41
297.02	4454.33
297.23	5719.98
297.44	4802.49
297.65	4564.92
297.86	3215.31
298.07	3499.98
298.28	4435.90
298.49	3225.55
298.70	3227.60
298.91	4583.35
299.12	3639.24
299.33	4167.62
299.54	4458.43
299.75	4536.25
299.96	5042.10
300.17	4431.80
300.38	3762.12
300.59	3956.68
300.80	5072.82
301.01	4831.16
301.22	4937.65
301.43	6322.08
301.64	4304.83
301.85	4319.17
302.06	4528.06
302.27	4364.22
302.48	8316.80
302.69	2928.60
302.89	3504.07
303.10	5418.93
303.31	4175.81
303.52	3618.76
303.73	3674.06
303.94	4229.06
304.15	3178.45
304.36	2275.29
304.57	3753.93
304.78	3858.37
304.99	5693.35
305.20	4220.86
305.41	3633.10
305.62	5101.49
305.83	4622.27
306.04	3758.02
306.25	4433.85
306.46	6080.42
306.67	5238.70
306.88	4671.42
307.09	3364.81
307.30	5386.16
307.51	9863.02
307.72	4650.94
307.93	3676.10
308.14	4835.25
308.35	3528.65
308.55	3391.44
308.76	2664.41
308.97	5031.86
309.18	6367.13
309.39	5961.64
309.60	3678.15
309.81	4612.03
310.02	3237.84
310.23	3712.97
310.44	3389.39
310.65	5560.24
310.86	3938.24
311.07	5093.30
311.28	4016.07
311.49	4138.94
311.70	5306.29
311.91	4874.17
312.11	7591.82
312.32	5642.15
312.53	4888.50
312.74	4093.89
312.95	4644.79
313.16	6045.60
313.37	5449.64
313.58	3276.75
313.79	3088.34
314.00	4652.98
314.21	4255.68
314.42	3827.65
314.63	4138.94
314.83	3794.89
315.04	5134.26
315.25	4335.55
315.46	5052.34
315.67	4208.58
315.88	3895.24
316.09	5586.86
316.30	3979.20
316.51	4771.77
316.72	4790.20
316.93	4394.94
317.13	3952.58
317.34	3835.85
317.55	5924.77
317.76	2424.80
317.97	3991.49
318.18	3803.08
318.39	3966.92
318.60	4280.25
318.81	2760.66
319.02	4573.11
319.23	5095.35
319.43	5601.19
319.64	3872.71
319.85	5785.51
320.06	4560.83
320.27	3325.90
320.48	5629.87
320.69	5246.90
320.90	4933.56
321.11	3760.07
321.31	4788.15
321.52	7233.43
321.73	4782.01
321.94	4769.72
322.15	2537.43
322.36	7210.90
322.57	5545.90
322.78	3028.95
322.98	5126.07
323.19	5193.65
323.40	4648.89
323.61	4700.09
323.82	5408.69
324.03	3471.31
324.24	4599.74
324.45	5461.93
324.65	3135.44
324.86	4622.27
325.07	4884.41
325.28	3786.69
325.49	6360.99
325.70	6188.96
325.91	5369.77
326.12	3057.62
326.32	4229.06
326.53	5365.68
326.74	4820.92
326.95	3672.01
327.16	3813.32
327.37	4323.26
327.58	3966.92
327.78	4179.90
327.99	3000.27
328.20	5269.42
328.41	5044.15
328.62	4648.89
328.83	3483.59
329.04	3823.56
329.24	3983.30
329.45	3227.60
329.66	3788.74
329.87	6965.14
330.08	5083.06
330.29	3270.61
330.49	3289.04
330.70	3028.95
330.91	4089.79
331.12	4433.85
331.33	5001.14
331.54	3026.90
331.74	4640.70
331.95	3452.88
332.16	2809.81
332.37	3868.61
332.58	5797.80
332.79	3018.71
332.99	3467.21
333.20	4272.06
333.41	5101.49
333.62	5552.04
333.83	5715.88
334.04	4138.94
334.24	3540.94
334.45	3923.91
334.66	4097.99
334.87	3749.83
335.08	3938.24
335.29	3639.24
335.49	4933.56
335.70	5117.87
335.91	5337.01
336.12	4708.28
336.33	4149.18
336.53	4067.27
336.74	4687.80
336.95	3268.56
337.16	3219.41
337.37	4175.81
337.57	3657.67
337.78	3246.03
337.99	3014.61
338.20	4566.97
338.41	4032.45
338.62	4442.04
338.82	6191.01
339.03	3897.28
339.24	5689.26
339.45	3626.95
339.65	3567.56
339.86	3344.33
340.07	5375.92
340.28	3366.86
340.49	3739.59
340.69	4884.41
340.90	5183.41
341.11	4585.40
341.32	7573.39
341.53	3444.68
341.73	5197.74
341.94	5537.71
342.15	3968.96
342.36	4886.45
342.57	5914.53
342.77	5134.26
342.98	3397.58
343.19	3157.97
343.40	5154.74
343.60	6033.32
343.81	5019.57
344.02	4884.41
344.23	5916.58
344.44	2754.52
344.64	2672.60
344.85	5023.67
345.06	5173.17
345.27	3315.66
345.47	2807.77
345.68	4925.36
345.89	4673.46
346.10	3979.20
346.30	3368.91
346.51	5681.07
346.72	7403.41
346.93	3297.23
347.13	4419.52
347.34	4685.75
347.55	6051.75
347.76	2480.09
347.97	5339.05
348.17	3934.15
348.38	3893.19
348.59	2205.66
348.80	3694.54
349.00	3880.90
349.21	5892.01
349.42	6137.76
349.63	4646.84
349.83	4736.95
350.04	3162.06
350.25	4868.02
350.45	3141.58
350.66	4730.81
350.87	4962.23
351.08	2615.26
351.28	5466.03
351.49	5722.02
351.70	6123.43
351.91	2840.53
352.11	5863.33
352.32	4235.20
352.53	5767.08
352.74	3471.31
352.94	4032.45
353.15	5406.64
353.36	4437.95
353.56	4161.47
353.77	4720.57
353.98	4433.85
354.19	6158.24
354.39	3590.09
354.60	3885.00
354.81	4087.75
355.02	3641.29
355.22	5740.46
355.43	3114.96
355.64	3979.20
355.84	4706.23
356.05	4405.18
356.26	4442.04
356.47	3418.06
356.67	4720.57
356.88	5023.67
357.09	4710.33
357.29	4761.53
357.50	7083.92
357.71	3841.99
357.92	4126.66
358.12	4478.91
358.33	5124.02
358.54	4130.75
358.74	3383.24
358.95	7135.12
359.16	4241.34
359.36	3725.26
359.57	4642.75
359.78	5328.81
359.98	3651.53
360.19	3530.70
360.40	3919.81
360.61	4964.28
360.81	5359.53
361.02	2502.62
361.23	5363.63
361.43	5990.31
361.64	4976.56
361.85	4642.75
362.05	5019.57
362.26	4360.13
362.47	4335.55
362.67	5265.33
362.88	5679.02
363.09	4771.77
363.29	3755.97
363.50	4032.45
363.71	3303.37
363.91	5375.92
364.12	5216.18
364.33	2725.85
364.53	2609.11
364.74	4206.53
364.95	6440.86
365.15	4198.34
365.36	3989.44
365.57	6320.03
365.77	3829.70
365.98	3143.63
366.19	4294.59
366.39	4005.83
366.60	3594.19
366.81	3088.34
367.01	2478.04
367.22	3872.71
367.43	6721.43
367.63	3194.83
367.84	3409.87
368.05	5035.96
368.25	3923.91
368.46	3266.51
368.67	4409.28
368.87	4616.12
369.08	4992.95
369.29	3504.07
369.49	6289.31
369.70	6559.64
369.91	6317.98
370.11	3172.30
370.32	3798.98
370.52	4843.45
370.73	4843.45
370.94	3061.71
371.14	3876.80
371.35	4470.72
371.56	4380.61
371.76	4513.72
371.97	3655.62
372.18	3622.86
372.38	3547.08
372.59	4126.66
372.79	4011.97
373.00	4513.72
373.21	5740.46
373.41	3712.97
373.62	3143.63
373.83	5164.98
374.03	3782.60
374.24	3946.44
374.44	3805.13
374.65	4497.34
374.86	4997.04
375.06	4829.11
375.27	3219.41
375.47	5033.91
375.68	5304.24
375.89	4382.65
376.09	4261.82
376.30	4188.10
376.50	6064.04
376.71	5089.20
376.92	5498.80
377.12	6827.93
377.33	4564.92
377.54	3956.68
377.74	4892.60
377.95	5509.04
378.15	4353.98
378.36	4294.59
378.57	4198.34
378.77	5167.03
378.98	3950.53
379.18	3577.80
379.39	4403.13
379.59	5189.55
379.80	4859.83
380.01	2529.24
380.21	2748.37
380.42	4364.22
380.62	6567.84
380.83	3274.70
381.04	3856.33
381.24	5857.19
381.45	4612.03
381.65	3506.12
381.86	3469.26
382.06	4108.23
382.27	4190.14
382.48	3948.48
382.68	4734.90
382.89	4468.67
383.09	6844.31
383.30	2508.76
383.51	4519.87
383.71	5746.60
383.92	4186.05
384.12	3055.57
384.33	3485.64
384.53	5015.48
384.74	5531.56
384.94	5805.99
385.15	4329.41
385.36	5969.83
385.56	4906.93
385.77	4124.61
385.97	3082.19
386.18	4470.72
386.38	4954.04
386.59	3715.02
386.79	3045.33
387.00	3659.72
387.21	5109.68
387.41	5519.28
387.62	2932.69
387.82	3876.80
388.03	4073.41
388.23	4167.62
388.44	2670.55
388.64	3377.10
388.85	5152.69
389.06	3538.89
389.26	4224.96
389.47	3284.94
389.67	4157.38
389.88	5543.85
390.08	3561.42
390.29	4011.97
390.49	5275.57
390.70	5930.92
390.90	5607.34
391.11	4743.10
391.31	3966.92
391.52	3991.49
391.72	3878.85
391.93	3887.04
392.13	4089.79
392.34	4560.83
392.55	5535.66
392.75	3827.65
392.96	4335.55
393.16	5302.19
393.37	4706.23
393.57	3665.86
393.78	2963.41
393.98	3475.40
394.19	5183.41
394.39	4229.06
394.60	3160.02
394.80	5601.19
395.01	4417.47
395.21	4038.59
395.42	4290.49
395.62	2971.60
395.83	3913.67
396.03	4278.21
396.24	5418.93
396.44	3801.03
396.65	4452.28
396.85	4470.72
397.06	3442.64
397.26	5066.67
397.47	3942.34
397.67	5248.94
397.88	3717.06
398.08	3381.20
398.29	4235.20
398.49	5930.92
398.70	4241.34
398.90	3956.68
399.11	3166.16
399.31	5418.93
399.52	4661.18
399.72	3512.27
399.93	5724.07
400.13	3674.06
400.34	4569.02
400.54	7145.36
400.75	3606.47
400.95	5406.64
401.15	4671.42
401.36	4569.02
401.56	4814.77
401.77	5070.77
401.97	3684.30
402.18	3624.90
402.38	2183.13
402.59	7507.85
402.79	4280.25
403.00	3614.66
403.20	3948.48
403.41	5226.42
403.61	4814.77
403.82	3567.56
404.02	3905.48
404.22	5369.77
404.43	3686.34
404.63	3766.21
404.84	5726.12
405.04	3772.36
405.25	3450.83
405.45	3098.58
405.66	3758.02
405.86	5437.36
406.07	4700.09
406.27	4356.03
406.47	3121.10
406.68	4016.07
406.88	4941.75
407.09	3721.16
407.29	4100.03
407.50	3370.96
407.70	4351.93
407.91	3235.79
408.11	3958.72
408.31	4939.70
408.52	5392.30
408.72	3424.20
408.93	3313.61
409.13	5644.20
409.34	6274.98
409.54	4128.70
409.74	3526.60
409.95	3313.61
410.15	3397.58
410.36	3487.69
410.56	3067.86
410.77	4454.33
410.97	3751.88
411.17	4741.05
411.38	3807.17
411.58	4648.89
411.79	5541.80
411.99	2992.08
412.19	3841.99
412.40	4442.04
412.60	7622.54
412.81	3327.95
413.01	4583.35
413.22	4034.50
413.42	3534.79
413.62	3311.57
413.83	4599.74
414.03	4390.84
414.24	4128.70
414.44	4292.54
414.64	4370.37
414.85	4396.99
415.05	6385.57
415.26	4550.59
415.46	3008.47
415.66	4386.75
415.87	3383.24
416.07	4011.97
416.28	3102.67
416.48	3319.76
416.68	6354.85
416.89	3479.50
417.09	3092.43
417.29	2955.22
417.50	3600.33
417.70	3362.76
417.91	5167.03
418.11	4753.34
418.31	5781.42
418.52	2725.85
418.72	3807.17
418.93	3940.29
419.13	3614.66
419.33	3004.37
419.54	3303.37
419.74	3399.63
419.94	5447.60
420.15	4609.98
420.35	3936.20
420.56	4577.21
420.76	3323.85
420.96	3016.66
421.17	3899.33
421.37	6047.65
421.57	4796.34
421.78	4628.41
421.98	5236.66
422.18	4388.80
422.39	5582.76
422.59	2691.03
422.80	4030.40
423.00	3971.01
423.20	4290.49
423.41	3039.19
423.61	5066.67
423.81	4964.28
424.02	3991.49
424.22	4632.51
424.42	3295.18
424.63	4636.60
424.83	4908.98
425.03	3352.52
425.24	3633.10
425.44	4007.87
425.64	5810.09
425.85	3915.72
426.05	3889.09
426.25	4329.41
426.46	4603.83
426.66	3700.68
426.86	6979.48
427.07	5027.76
427.27	4454.33
427.47	4425.66
427.68	5828.52
427.88	5400.49
428.08	5394.35
428.29	3635.14
428.49	4904.89
428.69	4997.04
428.90	3264.46
429.10	3428.30
429.30	4642.75
429.51	3807.17
429.71	5343.15
429.91	4050.88
430.12	4808.63
430.32	7290.77
430.52	4429.76
430.72	4601.79
430.93	5257.14
431.13	4794.29
431.33	4265.92
431.54	4513.72
431.74	3037.14
431.94	5408.69
432.15	3532.75
432.35	4265.92
432.55	2963.41
432.76	4898.74
432.96	4558.78
433.16	3424.20
433.36	3592.14
433.57	5179.31
433.77	4165.57
433.97	4888.50
434.18	3514.31
434.38	4505.53
434.58	6485.92
434.78	3682.25
434.99	3508.17
435.19	4698.04
435.39	4868.02
435.60	2879.44
435.80	6938.52
436.00	3301.33
436.20	5967.78
436.41	3545.03
436.61	2435.03
436.81	4585.40
437.02	3669.96
437.22	4908.98
437.42	2904.02
437.62	4478.91
437.83	4917.17
438.03	4427.71
438.23	3352.52
438.43	5128.11
438.64	3846.09
438.84	4577.21
439.04	3002.32
439.25	5805.99
439.45	4675.51
439.65	2682.84
439.85	3672.01
440.06	5205.94
440.26	4497.34
440.46	6946.71
440.66	3379.15
440.87	4442.04
441.07	4958.13
441.27	3418.06
441.47	5023.67
441.68	5355.44
441.88	4691.90
442.08	3823.56
442.28	4644.79
442.49	5224.37
442.69	5087.15
442.89	3053.52
443.09	3041.23
443.30	3702.73
443.50	5844.90
443.70	5111.73
443.90	2568.15
444.10	3872.71
444.31	4935.60
444.51	2750.42
444.71	4566.97
444.91	5089.20
445.12	4978.61
445.32	3096.53
445.52	3026.90
445.72	4835.25
445.93	3248.08
446.13	3223.50
446.33	6582.17
446.53	4839.35
446.73	5357.49
446.94	2265.05
447.14	4190.14
447.34	3520.46
447.54	5171.12
447.74	3854.28
447.95	4964.28
448.15	4751.29
448.35	5509.04
448.55	3227.60
448.76	4407.23
448.96	3303.37
449.16	5154.74
449.36	3809.22
449.56	3172.30
449.77	5588.91
449.97	4130.75
450.17	3405.77
450.37	2658.26
450.57	4765.62
450.78	5187.50
450.98	3594.19
451.18	3913.67
451.38	3303.37
451.58	4728.76
451.79	3758.02
451.99	2525.15
452.19	4458.43
452.39	5429.17
452.59	5148.59
452.79	3512.27
453.00	5107.63
453.20	3874.76
453.40	5234.61
453.60	6082.47
453.80	4814.77
454.01	6283.17
454.21	3246.03
454.41	3768.26
454.61	3792.84
454.81	4302.78
455.01	5248.94
455.22	3745.73
455.42	6336.42
455.62	7346.06
455.82	4462.52
456.02	3788.74
456.22	4042.69
456.43	4825.01
456.63	4194.24
456.83	4595.64
457.03	5423.02
457.23	4337.60
457.43	5085.11
457.64	4835.25
457.84	5367.73
458.04	6725.53
458.24	2750.42
458.44	4239.30
458.64	5484.46
458.84	6436.77
459.05	3444.68
459.25	4536.25
459.45	4325.31
459.65	5228.46
459.85	2240.48
460.05	3741.64
460.25	5484.46
460.46	5267.38
460.66	3733.45
460.86	3403.72
461.06	5846.95
461.26	3645.38
461.46	3391.44
461.66	4259.78
461.87	4673.46
462.07	4210.62
462.27	7092.12
462.47	2490.33
462.67	5578.67
462.87	4069.31
463.07	4061.12
463.27	4464.57
463.48	3858.37
463.68	3647.43
463.88	4333.50
464.08	4806.58
464.28	5758.89
464.48	4077.51
464.68	4630.46
464.88	4626.36
465.08	3708.87
465.29	4429.76
465.49	2498.52
465.69	5588.91
465.89	5482.41
466.09	4847.54
466.29	3383.24
466.49	2867.16
466.69	3690.44
466.89	4345.79
467.10	4097.99
467.30	4294.59
467.50	4165.57
467.70	3608.52
467.90	4814.77
468.10	3868.61
468.30	4122.56
468.50	3667.91
468.70	2746.33
468.90	3790.79
469.10	4114.37
469.31	5361.58
469.51	3182.54
469.71	2525.15
469.91	5373.87
470.11	4120.51
470.31	3794.89
470.51	2682.84
470.71	5576.62
470.91	6680.47
471.11	4364.22
471.31	3698.63
471.51	4851.64
471.71	4820.92
471.92	5527.47
472.12	3219.41
472.32	5457.84
472.52	5971.88
472.72	2867.16
472.92	3471.31
473.12	5158.83
473.32	4214.72
473.52	4024.26
473.72	8091.52
473.92	4843.45
474.12	5371.82
474.32	2570.20
474.52	3469.26
474.72	4900.79
474.92	3665.86
475.13	4974.52
475.33	3692.49
475.53	4308.93
475.73	5236.66
475.93	4071.36
476.13	2639.83
476.33	3633.10
476.53	4401.08
476.73	3047.38
476.93	3237.84
477.13	5246.90
477.33	6487.96
477.53	3864.52
477.73	4536.25
477.93	3612.62
478.13	3788.74
478.33	3897.28
478.53	4200.38
478.73	4921.27
478.93	4505.53
479.13	3528.65
479.33	3160.02
479.53	5060.53
479.73	4079.55
479.93	2973.65
480.13	4614.07
480.33	4511.68
480.53	4966.32
480.73	4085.70
480.93	3807.17
481.13	4200.38
481.34	3698.63
481.54	2983.89
481.74	4478.91
481.94	4483.00
482.14	4384.70
482.34	5060.53
482.54	4026.31
482.74	4474.81
482.94	4478.91
483.14	3968.96
483.34	4691.90
483.54	4181.95
483.74	5754.79
483.94	4233.15
484.14	3784.65
484.34	5029.81
484.54	3835.85
484.74	3272.65
484.94	4280.25
485.14	5234.61
485.34	4747.19
485.54	6346.66
485.74	3069.91
485.93	6500.25
486.13	3461.07
486.33	4073.41
486.53	4945.84
486.73	4089.79
486.93	4458.43
487.13	3221.45
487.33	4028.35
487.53	3614.66
487.73	3893.19
487.93	3024.85
488.13	4077.51
488.33	4018.11
488.53	4757.43
488.73	3731.40
488.93	3033.04
489.13	4503.48
489.33	3833.80
489.53	5339.05
489.73	4274.11
489.93	5584.81
490.13	4433.85
490.33	3786.69
490.53	4597.69
490.73	4423.61
490.93	3821.51
491.13	2158.56
491.33	2506.71
491.53	5109.68
491.73	4851.64
491.93	4560.83
492.12	4175.81
492.32	4431.80
492.52	4093.89
492.72	3082.19
492.92	3188.69
493.12	4587.45
493.32	4868.02
493.52	2992.08
493.72	2682.84
493.92	4876.21
494.12	3917.76
494.32	4667.32
494.52	3317.71
494.72	4919.22
494.92	3676.10
495.12	3442.64
495.31	3053.52
495.51	4798.39
495.71	4552.63
495.91	4495.29
496.11	4329.41
496.31	5738.41
496.51	4792.25
496.71	3074.00
496.91	3925.96
497.11	4677.56
497.31	4083.65
497.51	3104.72
497.71	3411.92
497.90	3129.30
498.10	5681.07
498.30	4968.37
498.50	4372.41
498.70	5359.53
498.90	4351.93
499.10	3620.81
499.30	2756.57
499.50	4947.89
499.70	7663.50
499.89	3430.35
500.09	4558.78
500.29	4208.58
500.49	4519.87
500.69	2965.46
500.89	4235.20
501.09	4401.08
501.29	4818.87
501.49	6530.97
501.69	3913.67
501.88	6203.30
502.08	3739.59
502.28	3954.63
502.48	5050.29
502.68	6248.35
502.88	3368.91
503.08	4001.73
503.28	3336.14
503.47	4448.19
503.67	5191.60
503.87	3518.41
504.07	4184.00
504.27	4319.17
504.47	3411.92
504.67	3872.71
504.87	3131.34
505.06	4057.03
505.26	4640.70
505.46	2060.26
505.66	3868.61
505.86	4118.47
506.06	4407.23
506.26	3864.52
506.45	2723.80
506.65	4384.70
506.85	5437.36
507.05	2666.46
507.25	3323.85
507.45	4652.98
507.65	5480.36
507.84	3295.18
508.04	4222.91
508.24	4779.96
508.44	6043.56
508.64	4075.46
508.84	2783.19
509.04	4859.83
509.23	4130.75
509.43	3649.48
509.63	5242.80
509.83	4140.99
510.03	4061.12
510.23	2396.12
510.42	4495.29
510.62	4507.58
510.82	4335.55
511.02	3653.58
511.22	2267.10
511.42	5498.80
511.61	3987.40
511.81	2748.37
512.01	4919.22
512.21	5797.80
512.41	5164.98
512.60	2766.81
512.80	4343.74
513.00	4984.76
513.20	3536.84
513.40	2580.44
513.60	4306.88
513.79	5654.44
513.99	4509.63
514.19	2271.20
514.39	3790.79
514.59	4003.78
514.78	6027.17
514.98	3643.34
515.18	4945.84
515.38	6653.85
515.58	4591.55
515.77	4540.35
515.97	2246.62
516.17	4849.59
516.37	4292.54
516.57	5963.68
516.76	4593.59
516.96	4048.83
517.16	3422.16
517.36	3608.52
517.56	3530.70
517.75	4241.34
517.95	3336.14
518.15	4681.66
518.35	4208.58
518.55	4964.28
518.74	5005.24
518.94	3866.56
519.14	2283.49
519.34	5162.93
519.53	4179.90
519.73	5062.58
519.93	3680.20
520.13	4632.51
520.32	4700.09
520.52	2639.83
520.72	5887.91
520.92	3987.40
521.12	6731.67
521.31	4810.68
521.51	3225.55
521.71	3825.61
521.91	5611.43
522.10	3909.57
522.30	5242.80
522.50	4358.08
522.70	6899.61
522.89	2889.68
523.09	3428.30
523.29	4315.07
523.49	3594.19
523.68	3860.42
523.88	3624.90
524.08	5988.26
524.28	3741.64
524.47	4036.55
524.67	6158.24
524.87	3518.41
525.07	5033.91
525.26	5033.91
525.46	3538.89
525.66	4679.61
525.86	6690.71
526.05	3385.29
526.25	4024.26
526.45	5701.54
526.64	3592.14
526.84	3399.63
527.04	3747.78
527.24	5791.66
527.43	5398.45
527.63	3024.85
527.83	5277.62
528.03	5156.79
528.22	5660.59
528.42	4210.62
528.62	5777.32
528.81	5896.10
529.01	5945.25
529.21	4429.76
529.41	4313.02
529.60	4566.97
529.80	4450.24
530.00	4261.82
530.19	3893.19
530.39	5580.71
530.59	5388.21
530.79	3049.43
530.98	3856.33
531.18	3407.82
531.38	4591.55
531.57	5828.52
531.77	2508.76
531.97	4630.46
532.16	4235.20
532.36	3766.21
532.56	3219.41
532.76	4341.69
532.95	5124.02
533.15	7954.31
533.35	3520.46
533.54	4632.51
533.74	4313.02
533.94	4777.91
534.13	2861.01
534.33	4466.62
534.53	5474.22
534.72	4849.59
534.92	4566.97
535.12	4382.65
535.31	4458.43
535.51	3172.30
535.71	3766.21
535.90	5156.79
536.10	4313.02
536.30	5351.34
536.49	4589.50
536.69	4489.15
536.89	6021.03
537.08	3870.66
537.28	3499.98
537.48	4286.40
537.67	3536.84
537.87	4526.01
538.07	3432.40
538.26	4708.28
538.46	4945.84
538.66	4022.21
538.85	4951.99
539.05	4227.01
539.25	4374.46
539.44	4507.58
539.64	4798.39
539.84	6799.26
540.03	4085.70
540.23	4503.48
540.42	4579.26
540.62	6129.57
540.82	4474.81
541.01	4347.84
541.21	4777.91
541.41	5076.91
541.60	3594.19
541.80	4317.12
542.00	3493.83
542.19	4005.83
542.39	3416.01
542.58	4241.34
542.78	3305.42
542.98	4237.25
543.17	4353.98
543.37	6891.41
543.57	4857.78
543.76	5312.43
543.96	6875.03
544.15	4163.52
544.35	5373.87
544.55	4417.47
544.74	3745.73
544.94	4323.26
545.13	3020.75
545.33	6733.72
545.53	5613.48
545.72	2922.45
545.92	3389.39
546.11	3579.85
546.31	3579.85
546.51	3104.72
546.70	6191.01
546.90	4577.21
547.09	3944.39
547.29	2973.65
547.49	3688.39
547.68	4337.60
547.88	3829.70
548.07	3872.71
548.27	3715.02
548.47	5316.53
548.66	4237.25
548.86	4171.71
549.05	4904.89
549.25	3123.15
549.45	4700.09
549.64	3514.31
549.84	5599.15
550.03	4536.25
550.23	5441.45
550.42	4030.40
550.62	2971.60
550.82	4026.31
551.01	4767.67
551.21	4239.30
551.40	3409.87
551.60	3270.61
551.79	5918.63
551.99	3944.39
552.19	3030.99
552.38	3592.14
552.58	3805.13
552.77	3434.44
552.97	3925.96
553.16	5384.11
553.36	4919.22
553.55	3321.81
553.75	3938.24
553.95	4149.18
554.14	4753.34
554.34	4683.70
554.53	3815.37
554.73	4282.30
554.92	6317.98
555.12	3893.19
555.31	4470.72
555.51	5306.29
555.70	3872.71
555.90	4609.98
556.09	5126.07
556.29	3561.42
556.49	4229.06
556.68	6424.48
556.88	4552.63
557.07	4607.93
557.27	4011.97
557.46	4351.93
557.66	4214.72
557.85	3006.42
558.05	5138.35
558.24	3999.68
558.44	3841.99
558.63	4605.88
558.83	4005.83
559.02	3504.07
559.22	5140.40
559.41	4929.46
559.61	4304.83
559.80	3921.86
560.00	4796.34
560.19	3483.59
560.39	3719.11
560.58	3968.96
560.78	3954.63
560.97	5273.52
561.17	3647.43
561.36	4861.88
561.56	5347.25
561.75	4650.94
561.95	5420.97
562.14	3639.24
562.34	3690.44
562.53	4370.37
562.73	5541.80
562.92	3313.61
563.12	3004.37
563.31	5212.08
563.51	5513.13
563.70	5136.31
563.90	4648.89
564.09	3524.55
564.29	4747.19
564.48	3114.96
564.68	3289.04
564.87	4444.09
565.07	3923.91
565.26	3848.13
565.46	2633.69
565.65	5457.84
565.85	3852.23
566.04	4028.35
566.24	3649.48
566.43	5871.53
566.63	3792.84
566.82	2600.92
567.01	3381.20
567.21	4642.75
567.40	6444.96
567.60	4730.81
567.79	4978.61
567.99	4808.63
568.18	3762.12
568.38	4030.40
568.57	4044.74
568.77	4708.28
568.96	4874.17
569.15	3526.60
569.35	2795.48
569.54	6193.06
569.74	4362.17
569.93	3039.19
570.13	4030.40
570.32	4904.89
570.52	4956.08
570.71	5275.57
570.90	2848.72
571.10	5670.83
571.29	3950.53
571.49	3631.05
571.68	3149.78
571.88	5126.07
572.07	4706.23
572.26	3915.72
572.46	2756.57
572.65	4327.36
572.85	4272.06
573.04	3577.80
573.24	2543.58
573.43	4726.71
573.62	3973.06
573.82	3141.58
574.01	3678.15
574.21	4595.64
574.40	4048.83
574.59	5871.53
574.79	3897.28
574.98	5560.24
575.18	5144.50
575.37	3942.34
575.56	4280.25
575.76	3565.51
575.95	5480.36
576.15	3923.91
576.34	3436.49
576.53	4425.66
576.73	4562.87
576.92	3444.68
577.12	2820.05
577.31	6500.25
577.50	5025.72
577.70	3026.90
577.89	3395.53
578.09	5019.57
578.28	4431.80
578.47	2203.61
578.67	5560.24
578.86	4560.83
579.06	5392.30
579.25	4011.97
579.44	3796.93
579.64	5306.29
579.83	4028.35
580.02	5312.43
580.22	3334.09
580.41	4794.29
580.61	4478.91
580.80	6485.92
580.99	3461.07
581.19	6289.31
581.38	3559.37
581.57	5005.24
581.77	3553.23
581.96	2912.21
582.15	3852.23
582.35	3483.59
582.54	3395.53
582.73	5851.05
582.93	3557.32
583.12	2498.52
583.32	3684.30
583.51	4442.04
583.70	4902.84
583.90	3493.83
584.09	2963.41
584.28	4487.10
584.48	5812.14
584.67	3952.58
584.86	4071.36
585.06	5064.63
585.25	4511.68
585.44	3155.92
585.64	2918.36
585.83	4880.31
586.02	4593.59
586.22	3825.61
586.41	3272.65
586.60	3809.22
586.80	3289.04
586.99	6231.97
587.18	4483.00
587.38	5865.38
587.57	4675.51
587.76	5605.29
587.96	4118.47
588.15	3647.43
588.34	3635.14
588.53	4179.90
588.73	4091.84
588.92	3465.16
589.11	5863.33
589.31	4693.94
589.50	4759.48
589.69	6455.20
589.89	4175.81
590.08	4597.69
590.27	2838.48
590.47	5935.01
590.66	4052.93
590.85	3631.05
591.04	2742.23
591.24	5339.05
591.43	6016.93
591.62	2832.34
591.82	3018.71
592.01	3352.52
592.20	4968.37
592.39	6322.08
592.59	3518.41
592.78	4968.37
592.97	4769.72
593.17	3192.78
593.36	4190.14
593.55	5609.39
593.74	4796.34
593.94	2963.41
594.13	2789.33
594.32	5310.38
594.52	6721.43
594.71	5750.70
594.90	3141.58
595.09	4511.68
595.29	3895.24
595.48	3086.29
595.67	2344.92
595.86	4440.00
596.06	3164.11
596.25	4620.22
596.44	5746.60
596.63	3401.68
596.83	4839.35
597.02	3655.62
597.21	3301.33
597.40	6397.85
597.60	3901.38
597.79	5341.10
597.98	3452.88
598.17	5543.85
598.37	4915.12
598.56	5642.15
598.75	2707.41
598.94	4648.89
599.14	4687.80
599.33	2557.91
599.52	3661.77
599.71	4646.84
599.91	5957.54
600.10	3956.68
600.29	5117.87
600.48	4810.68
600.68	4339.65
600.87	4689.85
601.06	2799.57
601.25	5582.76
601.44	5674.92
601.64	3792.84
601.83	6291.36
602.02	4530.11
602.21	4059.07
602.41	4796.34
602.60	4114.37
602.79	3942.34
602.98	3424.20
603.17	4167.62
603.37	2740.18
603.56	5228.46
603.75	3704.78
603.94	2797.53
604.13	2422.75
604.33	4886.45
604.52	4083.65
604.71	3180.50
604.90	3968.96
605.09	4413.37
605.29	5099.44
605.48	4745.14
605.67	3968.96
605.86	4034.50
606.05	6391.71
606.25	4990.90
606.44	4577.21
606.63	5597.10
606.82	5246.90
607.01	4806.58
607.20	5040.05
607.40	5253.04
607.59	4995.00
607.78	4999.09
607.97	3887.04
608.16	4081.60
608.36	4315.07
608.55	3002.32
608.74	4655.03
608.93	7206.80
609.12	3999.68
609.31	3753.93
609.51	3860.42
609.70	5416.88
609.89	3710.92
610.08	3377.10
610.27	2832.34
610.46	6199.20
610.66	4892.60
610.85	4659.13
611.04	5973.92
611.23	5121.97
611.42	5025.72
611.61	3966.92
611.80	3901.38
612.00	7255.95
612.19	4218.82
612.38	3598.28
612.57	4018.11
612.76	5652.39
612.95	4882.36
613.14	4175.81
613.34	4286.40
613.53	4478.91
613.72	4020.16
613.91	4564.92
614.10	4028.35
614.29	5154.74
614.48	4818.87
614.67	3880.90
614.87	6399.90
615.06	5402.54
615.25	6234.02
615.44	4415.42
615.63	4483.00
615.82	3717.06
616.01	5781.42
616.20	2629.59
616.40	6473.63
616.59	4427.71
616.78	4249.54
616.97	4745.14
617.16	4052.93
617.35	6145.95
617.54	5736.36
617.73	4597.69
617.92	3110.86
618.12	4075.46
618.31	3551.18
618.50	5443.50
618.69	4440.00
618.88	4212.67
619.07	3600.33
619.26	4579.26
619.45	4026.31
619.64	3155.92
619.83	4667.32
620.02	2985.94
620.22	4126.66
620.41	4536.25
620.60	4140.99
620.79	3321.81
620.98	3141.58
621.17	3264.46
621.36	6703.00
621.55	3604.42
621.74	7868.30
621.93	4315.07
622.12	6485.92
622.31	3989.44
622.51	6981.53
622.70	4820.92
622.89	5238.70
623.08	3420.11
623.27	3870.66
623.46	4829.11
623.65	4470.72
623.84	2666.46
624.03	3336.14
624.22	5726.12
624.41	4775.86
624.60	3755.97
624.79	2478.04
624.98	5754.79
625.17	4001.73
625.36	3176.40
625.55	5547.95
625.74	5830.57
625.94	3954.63
626.13	3274.70
626.32	2887.64
626.51	4042.69
626.70	5050.29
626.89	3567.56
627.08	5054.39
627.27	3528.65
627.46	5703.59
627.65	3446.73
627.84	4181.95
628.03	3110.86
628.22	3557.32
628.41	4319.17
628.60	3223.50
628.79	4655.03
628.98	3059.67
629.17	4075.46
629.36	3174.35
629.55	4026.31
629.74	4630.46
629.93	2895.83
630.12	3735.50
630.31	3866.56
630.50	4427.71
630.69	4388.80
630.88	4564.92
631.07	4085.70
631.26	4853.69
631.45	3635.14
631.64	5189.55
631.83	5138.35
632.02	5783.46
632.21	4859.83
632.40	3981.25
632.59	4255.68
632.78	4628.41
632.97	3577.80
633.16	6537.12
633.35	4181.95
633.54	3489.74
633.73	2705.37
633.92	3446.73
634.11	5595.05
634.30	3796.93
634.49	3078.10
634.68	4140.99
634.87	4968.37
635.06	3180.50
635.25	4040.64
635.44	3315.66
635.63	4054.98
635.82	4104.13
636.01	2803.67
636.20	5304.24
636.39	5169.07
636.58	4261.82
636.77	4806.58
636.96	3657.67
637.15	3323.85
637.34	8337.28
637.53	5775.27
637.72	4421.56
637.91	4622.27
638.09	5922.73
638.28	4286.40
638.47	2748.37
638.66	4655.03
638.85	3239.89
639.04	5380.01
639.23	2983.89
639.42	5025.72
639.61	4134.85
639.80	3321.81
639.99	2680.79
640.18	5615.53
640.37	6942.61
640.56	2322.40
640.75	3196.88
640.94	3618.76
641.13	4558.78
641.32	4378.56
641.50	3348.43
641.69	5109.68
641.88	4708.28
642.07	3430.35
642.26	5150.64
642.45	3973.06
642.64	4456.38
642.83	3868.61
643.02	4548.54
643.21	3801.03
643.40	4026.31
643.59	2951.12
643.77	3225.55
643.96	4196.29
644.15	4136.90
644.34	4278.21
644.53	2729.94
644.72	4093.89
644.91	4102.08
645.10	7563.15
645.29	5029.81
645.48	5132.21
645.67	3985.35
645.85	3872.71
646.04	5748.65
646.23	4290.49
646.42	3831.75
646.61	4153.28
646.80	5183.41
646.99	3979.20
647.18	7145.36
647.37	3231.69
647.55	4511.68
647.74	5572.52
647.93	3643.34
648.12	3858.37
648.31	4290.49
648.50	6764.44
648.69	8712.06
648.88	4532.15
649.06	3303.37
649.25	3823.56
649.44	4628.41
649.63	3876.80
649.82	4380.61
650.01	3645.38
650.20	5769.13
650.39	3213.26
650.57	5478.32
650.76	4495.29
650.95	5011.38
651.14	2965.46
651.33	4695.99
651.52	3837.89
651.70	3514.31
651.89	3942.34
652.08	3401.68
652.27	5038.00
652.46	4052.93
652.65	4083.65
652.84	3823.56
653.02	4851.64
653.21	4022.21
653.40	2598.87
653.59	3717.06
653.78	4683.70
653.97	4446.14
654.15	4294.59
654.34	3436.49
654.53	3657.67
654.72	5044.15
654.91	3024.85
655.10	5881.77
655.28	4786.10
655.47	4652.98
655.66	2981.84
655.85	5904.29
656.04	4620.22
656.23	3549.13
656.41	5154.74
656.60	4026.31
656.79	6942.61
656.98	5232.56
657.17	3583.95
657.35	3418.06
657.54	4343.74
657.73	3901.38
657.92	2310.11
658.11	5570.48
658.29	3864.52
658.48	3520.46
658.67	4323.26
658.86	8413.06
659.05	3993.54
659.23	5744.55
659.42	5914.53
659.61	3241.93
659.80	4046.79
659.99	4153.28
660.17	3309.52
660.36	5279.66
660.55	4743.10
660.74	4655.03
660.92	2717.65
661.11	3858.37
661.30	6924.18
661.49	6002.60
661.68	2439.13
661.86	3456.97
662.05	5752.74
662.24	4601.79
662.43	4417.47
662.61	3657.67
662.80	4898.74
662.99	3952.58
663.18	3973.06
663.37	3919.81
663.55	4405.18
663.74	5347.25
663.93	2965.46
664.12	5748.65
664.30	4016.07
664.49	4343.74
664.68	3008.47
664.87	3133.39
665.05	4691.90
665.24	5074.87
665.43	5861.29
665.62	3887.04
665.80	5169.07
665.99	6514.59
666.18	2904.02
666.37	3698.63
666.55	3366.86
666.74	5373.87
666.93	3760.07
667.11	2514.91
667.30	3829.70
667.49	7135.12
667.68	4165.57
667.86	5035.96
668.05	6571.93
668.24	5398.45
668.43	2574.30
668.61	3049.43
668.80	4839.35
668.99	4753.34
669.17	3932.10
669.36	5259.18
669.55	5744.55
669.74	4446.14
669.92	5603.24
670.11	3700.68
670.30	4894.65
670.48	7620.49
670.67	5019.57
670.86	2611.16
671.05	3661.77
671.23	3514.31
671.42	3485.64
671.61	3061.71
671.79	4351.93
671.98	3809.22
672.17	4577.21
672.35	5828.52
672.54	5318.57
672.73	6238.11
672.91	2445.27
673.10	3151.82
673.29	5214.13
673.48	4560.83
673.66	2869.20
673.85	4360.13
674.04	3936.20
674.22	4943.80
674.41	5836.71
674.60	5830.57
674.78	4112.32
674.97	4104.13
675.16	5375.92
675.34	2791.38
675.53	5881.77
675.72	6934.42
675.90	4147.14
676.09	4519.87
676.28	4315.07
676.46	5457.84
676.65	3278.80
676.84	4415.42
677.02	7364.50
677.21	6606.75
677.40	5347.25
677.58	4782.01
677.77	4827.06
677.95	3200.98
678.14	2490.33
678.33	4419.52
678.51	4235.20
678.70	4272.06
678.89	3100.62
679.07	4947.89
679.26	4364.22
679.45	5707.69
679.63	4855.73
679.82	5550.00
680.01	4444.09
680.19	4050.88
680.38	4980.66
680.56	2752.47
680.75	4489.15
680.94	4077.51
681.12	5398.45
681.31	4202.43
681.50	3321.81
681.68	4708.28
681.87	5613.48
682.05	4978.61
682.24	6485.92
682.43	3493.83
682.61	2912.21
682.80	3370.96
682.98	4976.56
683.17	3264.46
683.36	5040.05
683.54	5535.66
683.73	5146.55
683.91	5498.80
684.10	4997.04
684.29	4902.84
684.47	3282.89
684.66	4872.12
684.84	3008.47
685.03	4110.27
685.22	5920.68
685.40	5140.40
685.59	2844.63
685.77	5963.68
685.96	4747.19
686.15	6121.38
686.33	3436.49
686.52	3536.84
686.70	5337.01
686.89	5056.43
687.07	4960.18
687.26	2674.65
687.45	5441.45
687.63	4698.04
687.82	4521.92
688.00	3672.01
688.19	5291.95
688.37	3567.56
688.56	2559.96
688.75	4796.34
688.93	6850.46
689.12	5144.50
689.30	3516.36
689.49	4001.73
689.67	4519.87
689.86	4859.83
690.04	3770.31
690.23	2832.34
690.42	4915.12
690.60	7632.78
690.79	4237.25
690.97	3536.84
691.16	4034.50
691.34	5869.48
691.53	5224.37
691.71	4437.95
691.90	4743.10
692.08	4284.35
692.27	3092.43
692.45	3887.04
692.64	3403.72
692.83	6102.95
693.01	6385.57
693.20	4384.70
693.38	4231.10
693.57	5275.57
693.75	3110.86
693.94	3160.02
694.12	4315.07
694.31	3659.72
694.49	2858.96
694.68	6399.90
694.86	6006.69
695.05	4995.00
695.23	2906.07
695.42	6903.70
695.60	6424.48
695.79	5371.82
695.97	3295.18
696.16	3069.91
696.34	3020.75
696.53	3794.89
696.71	3731.40
696.90	2455.51
697.08	4147.14
697.27	4566.97
697.45	2400.22
697.64	4806.58
697.82	5830.57
698.01	4511.68
698.19	5093.30
698.38	2592.73
698.56	4003.78
698.75	5879.72
698.93	4347.84
699.12	4769.72
699.30	5451.69
699.49	6418.33
699.67	5300.14
699.86	4896.69
700.04	3717.06
700.22	4695.99
700.41	3319.76
700.59	4044.74
700.78	5152.69
700.96	4478.91
701.15	3700.68
701.33	4458.43
701.52	4196.29
701.70	4519.87
701.89	3407.82
702.07	3219.41
702.26	4896.69
702.44	4884.41
702.62	4184.00
702.81	2947.03
702.99	5081.01
703.18	4274.11
703.36	6084.52
703.55	4669.37
703.73	4265.92
703.92	5670.83
704.10	4204.48
704.28	6838.17
704.47	4941.75
704.65	3502.03
704.84	3438.54
705.02	3215.31
705.21	7135.12
705.39	3502.03
705.57	4069.31
705.76	5273.52
705.94	5595.05
706.13	4505.53
706.31	2459.61
706.50	3772.36
706.68	4816.82
706.86	7176.08
707.05	3815.37
707.23	3051.47
707.42	5902.25
707.60	3180.50
707.78	4822.97
707.97	5738.41
708.15	3968.96
708.34	4782.01
708.52	2449.37
708.70	7100.31
708.89	3565.51
709.07	5361.58
709.26	2959.31
709.44	5230.51
709.62	4114.37
709.81	4034.50
709.99	2676.70
710.18	3299.28
710.36	3549.13
710.54	5121.97
710.73	3669.96
710.91	3973.06
711.10	5150.64
711.28	5003.19
711.46	4014.02
711.65	3917.76
711.83	4310.97
712.01	5511.08
712.20	2926.55
712.38	4628.41
712.57	5250.99
712.75	4341.69
712.93	5162.93
713.12	5844.90
713.30	3889.09
713.48	4251.58
713.67	3989.44
713.85	3254.22
714.03	5875.62
714.22	5533.61
714.40	4448.19
714.58	3608.52
714.77	6053.80
714.95	5054.39
715.14	3764.17
715.32	3696.58
715.50	3815.37
715.69	5578.67
715.87	3076.05
716.05	3712.97
716.24	4915.12
716.42	5580.71
716.60	2930.64
716.79	3526.60
716.97	3893.19
717.15	5812.14
717.34	3366.86
717.52	4825.01
717.70	4530.11
717.89	4081.60
718.07	4450.24
718.25	3069.91
718.44	5320.62
718.62	4984.76
718.80	5038.00
718.98	4274.11
719.17	6008.74
719.35	4911.03
719.53	4751.29
719.72	3725.26
719.90	5758.89
720.08	4569.02
720.27	2820.05
720.45	6297.50
720.63	5029.81
720.82	5762.98
721.00	5705.64
721.18	3839.94
721.36	5435.31
721.55	5314.48
721.73	3747.78
721.91	4018.11
722.10	4493.24
722.28	4743.10
722.46	3227.60
722.64	2414.56
722.83	3782.60
723.01	5762.98
723.19	3047.38
723.38	2537.43
723.56	3964.87
723.74	5367.73
723.92	4495.29
724.11	3612.62
724.29	4417.47
724.47	5457.84
724.65	5089.20
724.84	2934.74
725.02	6993.81
725.20	4714.42
725.39	2127.84
725.57	3176.40
725.75	6172.58
725.93	4825.01
726.12	5887.91
726.30	3489.74
726.48	4954.04
726.66	4937.65
726.85	3694.54
727.03	3962.82
727.21	5994.40
727.39	5648.30
727.58	4896.69
727.76	4151.23
727.94	5449.64
728.12	3692.49
728.30	3862.47
728.49	3442.64
728.67	3102.67
728.85	5842.85
729.03	3532.75
729.22	4755.38
729.40	4388.80
729.58	4263.87
729.76	3569.61
729.95	6320.03
730.13	4681.66
730.31	4210.62
730.49	5187.50
730.67	5187.50
730.86	4231.10
731.04	4564.92
731.22	3491.79
731.40	4958.13
731.58	7176.08
731.77	6934.42
731.95	3272.65
732.13	4296.64
732.31	4251.58
732.50	4870.07
732.68	3084.24
732.86	5138.35
733.04	4458.43
733.22	5429.17
733.40	3235.79
733.59	4151.23
733.77	5191.60
733.95	4476.86
734.13	4478.91
734.31	3743.69
734.50	5613.48
734.68	6088.61
734.86	3467.21
735.04	3129.30
735.22	4693.94
735.41	4722.62
735.59	4368.32
735.77	4779.96
735.95	6360.99
736.13	3184.59
736.31	4550.59
736.50	4177.86
736.68	8171.40
736.86	5470.12
737.04	3401.68
737.22	4837.30
737.40	3887.04
737.59	6934.42
737.77	5390.25
737.95	3878.85
738.13	4489.15
738.31	4757.43
738.49	4560.83
738.67	4491.20
738.86	3547.08
739.04	5795.75
739.22	5416.88
739.40	3805.13
739.58	4069.31
739.76	4605.88
739.94	3426.25
740.13	4964.28
740.31	4118.47
740.49	3702.73
740.67	3817.41
740.85	2688.98
741.03	3891.14
741.21	6373.28
741.39	3348.43
741.58	3217.36
741.76	5959.59
741.94	4198.34
742.12	5566.38
742.30	3983.30
742.48	5130.16
742.66	4771.77
742.84	3651.53
743.03	3651.53
743.21	4849.59
743.39	5367.73
743.57	5566.38
743.75	3706.82
743.93	3844.04
744.11	5449.64
744.29	4149.18
744.47	3620.81
744.65	4790.20
744.84	6416.29
745.02	3262.41
745.20	3379.15
745.38	3760.07
745.56	4648.89
745.74	3971.01
745.92	3334.09
746.10	3862.47
746.28	3495.88
746.46	6383.52
746.64	3264.46
746.82	5189.55
747.01	4167.62
747.19	3135.44
747.37	3946.44
747.55	5498.80
747.73	4782.01
747.91	3088.34
748.09	3755.97
748.27	3956.68
748.45	6113.19
748.63	4460.48
748.81	3715.02
748.99	3618.76
749.17	5345.20
749.35	2983.89
749.53	3459.02
749.72	4646.84
749.90	4814.77
750.08	4929.46
750.26	4319.17
750.44	4310.97
750.62	7053.20
750.80	3616.71
750.98	2895.83
751.16	3930.05
751.34	4908.98
751.52	4509.63
751.70	3270.61
751.88	4671.42
752.06	5642.15
752.24	2906.07
752.42	6033.32
752.60	5093.30
752.78	3850.18
752.96	2338.78
753.14	7245.71
753.32	5593.00
753.50	6240.16
753.68	2734.04
753.86	3176.40
754.04	4988.85
754.22	5550.00
754.40	4231.10
754.58	4077.51
754.76	4587.45
754.94	4405.18
755.12	7255.95
755.30	4202.43
755.48	4153.28
755.66	4587.45
755.84	2387.93
756.02	3635.14
756.20	5560.24
756.38	4110.27
756.56	5283.76
756.74	3422.16
756.92	5031.86
757.10	4151.23
757.28	2549.72
757.46	3018.71
757.64	6119.33
757.82	4069.31
758.00	4194.24
758.18	3977.16
758.36	5824.42
758.54	4667.32
758.72	4466.62
758.90	3454.92
759.08	5351.34
759.26	4720.57
759.44	3418.06
759.62	5900.20
759.80	4868.02
759.98	4241.34
760.16	3637.19
760.34	3968.96
760.52	6217.63
760.70	4423.61
760.88	2430.94
761.06	2320.35
761.24	4360.13
761.42	5656.49
761.60	3424.20
761.77	2758.61
761.95	6287.26
762.13	4935.60
762.31	2500.57
762.49	4112.32
762.67	4728.76
762.85	4671.42
763.03	3141.58
763.21	4220.86
763.39	6209.44
763.57	4894.65
763.75	5871.53
763.93	6838.17
764.11	4040.64
764.29	5029.81
764.46	3755.97
764.64	3561.42
764.82	3895.24
765.00	4546.49
765.18	5380.01
765.36	4313.02
765.54	4390.84
765.72	3522.51
765.90	2803.67
766.08	4157.38
766.26	5076.91
766.44	6481.82
766.61	3280.85
766.79	3669.96
766.97	4382.65
767.15	4298.69
767.33	3508.17
767.51	4093.89
767.69	5091.25
767.87	3962.82
768.05	5007.28
768.22	5533.61
768.40	4677.56
768.58	4421.56
768.76	3719.11
768.94	3315.66
769.12	5097.39
769.30	5814.18
769.48	4282.30
769.66	4566.97
769.83	3878.85
770.01	4331.45
770.19	3667.91
770.37	5238.70
770.55	4433.85
770.73	4507.58
770.91	3198.93
771.09	3074.00
771.26	5801.90
771.44	7839.62
771.62	3717.06
771.80	5769.13
771.98	4853.69
772.16	5402.54
772.34	3651.53
772.51	3975.11
772.69	5052.34
772.87	5240.75
773.05	6481.82
773.23	4474.81
773.41	5492.65
773.58	7763.85
773.76	4405.18
773.94	2443.23
774.12	4739.00
774.30	5060.53
774.48	4913.08
774.65	4210.62
774.83	4956.08
775.01	3596.23
775.19	5564.33
775.37	5719.98
775.55	5984.16
775.72	4841.40
775.90	5531.56
776.08	5289.90
776.26	5851.05
776.44	7931.78
776.61	4134.85
776.79	4554.68
776.97	3413.96
777.15	4415.42
777.33	2643.93
777.51	2426.84
777.68	5175.22
777.86	4237.25
778.04	5849.00
778.22	5681.07
778.40	6244.26
778.57	5392.30
778.75	4384.70
778.93	4446.14
779.11	6283.17
779.29	4378.56
779.46	3303.37
779.64	4216.77
779.82	6686.62
780.00	4272.06
780.17	3909.57
780.35	3639.24
780.53	4677.56
780.71	4964.28
780.89	4231.10
781.06	4208.58
781.24	4270.01
781.42	4892.60
781.60	4984.76
781.77	4829.11
781.95	5466.03
782.13	4396.99
782.31	3035.09
782.48	4169.66
782.66	3751.88
782.84	4657.08
783.02	3663.82
783.19	5623.72
783.37	5674.92
783.55	4972.47
783.73	3233.74
783.90	7161.75
784.08	4743.10
784.26	6602.65
784.44	4270.01
784.61	5414.83
784.79	4483.00
784.97	4609.98
785.15	6870.94
785.32	4665.27
785.50	6070.18
785.68	5662.63
785.86	5138.35
786.03	5044.15
786.21	4138.94
786.39	6612.89
786.57	6043.56
786.74	4716.47
786.92	6727.58
787.10	4984.76
787.27	5425.07
787.45	3608.52
787.63	5408.69
787.81	6182.82
787.98	3753.93
788.16	4609.98
788.34	6664.09
788.51	6385.57
788.69	4505.53
788.87	6119.33
789.04	5126.07
789.22	6965.14
789.40	3946.44
789.58	4480.96
789.75	4077.51
789.93	4646.84
790.11	3835.85
790.28	3534.79
790.46	4499.39
790.64	5197.74
790.81	3149.78
790.99	4679.61
791.17	4814.77
791.34	6864.79
791.52	4745.14
791.70	3862.47
791.87	5476.27
792.05	4444.09
792.23	4188.10
792.40	4491.20
792.58	3782.60
792.76	5937.06
792.93	4933.56
793.11	5351.34
793.29	5928.87
793.46	5900.20
793.64	4827.06
793.82	4552.63
793.99	4908.98
794.17	3989.44
794.35	3727.30
794.52	4603.83
794.70	3735.50
794.88	5969.83
795.05	5459.88
795.23	3409.87
795.41	5631.91
795.58	3526.60
795.76	5425.07
795.94	2463.71
796.11	4448.19
796.29	4743.10
796.46	4071.36
796.64	5193.65
796.82	5091.25
796.99	5431.21
797.17	3569.61
797.35	4755.38
797.52	5748.65
797.70	7149.46
797.87	5341.10
798.05	5533.61
798.23	4822.97
798.40	4243.39
798.58	3006.42
798.76	3944.39
798.93	5539.76
799.11	4435.90
799.28	4274.11
799.46	4329.41
799.64	5400.49
799.81	5969.83
799.99	3305.42
800.16	4376.51
800.34	6639.51
800.52	4487.10
800.69	3989.44
800.87	4212.67
801.04	5150.64
801.22	4892.60
801.39	3641.29
801.57	2775.00
801.75	5066.67
801.92	5597.10
802.10	4646.84
802.27	6418.33
802.45	7247.76
802.63	5150.64
802.80	8050.57
802.98	3475.40
803.15	4808.63
803.33	4702.14
803.50	3530.70
803.68	4437.95
803.86	5926.82
804.03	5244.85
804.21	5119.92
804.38	4489.15
804.56	5857.19
804.73	7700.36
804.91	3995.59
805.08	4708.28
805.26	4595.64
805.44	3581.90
805.61	3516.36
805.79	4493.24
805.96	4751.29
806.14	6088.61
806.31	2961.36
806.49	5179.31
806.66	6344.61
806.84	4798.39
807.01	6924.18
807.19	3569.61
807.36	5584.81
807.54	5701.54
807.71	3131.34
807.89	4892.60
808.07	4362.17
808.24	6883.22
808.42	3915.72
808.59	5535.66
808.77	5482.41
808.94	5119.92
809.12	3774.41
809.29	4106.18
809.47	5042.10
809.64	3635.14
809.82	4810.68
809.99	3280.85
810.17	6199.20
810.34	5478.32
810.52	3602.38
810.69	3655.62
810.87	4702.14
811.04	4380.61
811.22	4984.76
811.39	3696.58
811.57	6354.85
811.74	6064.04
811.92	3090.38
812.09	6195.11
812.27	4351.93
812.44	4550.59
812.62	3936.20
812.79	4878.26
812.97	4579.26
813.14	4396.99
813.31	3209.17
813.49	4378.56
813.66	5001.14
813.84	5248.94
814.01	3330.00
814.19	3528.65
814.36	5472.17
814.54	4175.81
814.71	2371.55
814.89	5500.84
815.06	5250.99
815.24	3573.71
815.41	4773.82
815.58	6328.22
815.76	6408.09
815.93	6080.42
816.11	3760.07
816.28	3194.83
816.46	6639.51
816.63	3983.30
816.81	3119.06
816.98	3657.67
817.15	5294.00
817.33	5404.59
817.50	3590.09
817.68	3395.53
817.85	4935.60
818.03	3340.24
818.20	2973.65
818.37	4220.86
818.55	4007.87
818.72	4171.71
818.90	4181.95
819.07	4100.03
819.25	6893.46
819.42	5853.09
819.59	3123.15
819.77	3928.00
819.94	7176.08
820.12	7485.33
820.29	5195.70
820.46	4722.62
820.64	5046.20
820.81	4667.32
820.99	5248.94
821.16	6119.33
821.33	5244.85
821.51	5808.04
821.68	4227.01
821.86	7155.60
822.03	5490.60
822.20	6119.33
822.38	6825.88
822.55	4161.47
822.73	3893.19
822.90	5904.29
823.07	2605.02
823.25	4304.83
823.42	5076.91
823.59	5140.40
823.77	4063.17
823.94	5404.59
824.12	5113.78
824.29	5164.98
824.46	5838.76
824.64	5605.29
824.81	4356.03
824.98	6057.89
825.16	4388.80
825.33	4116.42
825.50	5126.07
825.68	7452.56
825.85	5457.84
826.03	4591.55
826.20	4673.46
826.37	6027.17
826.55	6322.08
826.72	4755.38
826.89	6479.77
827.07	4597.69
827.24	5001.14
827.41	4816.82
827.59	3248.08
827.76	4566.97
827.93	3170.26
828.11	4843.45
828.28	4904.89
828.45	6178.72
828.63	3276.75
828.80	3528.65
828.97	4505.53
829.15	5586.86
829.32	4372.41
829.49	4325.31
829.67	4698.04
829.84	5498.80
830.01	4507.58
830.18	4005.83
830.36	4298.69
830.53	4358.08
830.70	5449.64
830.88	4204.48
831.05	6746.01
831.22	6973.33
831.40	3026.90
831.57	4634.55
831.74	5343.15
831.91	3919.81
832.09	3592.14
832.26	5218.22
832.43	5773.22
832.61	4865.97
832.78	4173.76
832.95	3330.00
833.13	6231.97
833.30	4353.98
833.47	5963.68
833.64	4200.38
833.82	6514.59
833.99	4616.12
834.16	4190.14
834.33	3397.58
834.51	5044.15
834.68	5072.82
834.85	4870.07
835.03	4519.87
835.20	4444.09
835.37	5052.34
835.54	4190.14
835.72	5541.80
835.89	3833.80
836.06	5584.81
836.23	4820.92
836.41	4902.84
836.58	6371.23
836.75	6360.99
836.92	4184.00
837.10	4458.43
837.27	5697.45
837.44	7573.39
837.61	5992.36
837.78	5167.03
837.96	6600.60
838.13	5107.63
838.30	6940.57
838.47	6240.16
838.65	4394.94
838.82	4845.49
838.99	4540.35
839.16	3504.07
839.34	4267.97
839.51	6260.64
839.68	4849.59
839.85	3839.94
840.02	4644.79
840.20	5101.49
840.37	5959.59
840.54	4857.78
840.71	6086.56
840.88	5263.28
841.06	4145.09
841.23	4634.55
841.40	6100.90
841.57	9103.22
841.74	3762.12
841.92	5603.24
842.09	5109.68
842.26	5769.13
842.43	3362.76
842.60	3680.20
842.78	6694.81
842.95	4147.14
843.12	3997.64
843.29	4831.16
843.46	4548.54
843.64	5253.04
843.81	3465.16
843.98	6543.26
844.15	6526.88
844.32	7094.16
844.49	3225.55
844.67	4044.74
844.84	4544.44
845.01	3936.20
845.18	3399.63
845.35	4814.77
845.52	4061.12
845.70	6379.42
845.87	3536.84
846.04	3426.25
846.21	4132.80
846.38	4847.54
846.55	3342.28
846.72	3592.14
846.90	5664.68
847.07	5205.94
847.24	4134.85
847.41	3567.56
847.58	4874.17
847.75	5504.94
847.92	2594.78
848.10	4827.06
848.27	3631.05
848.44	5842.85
848.61	4026.31
848.78	3553.23
848.95	5660.59
849.12	3721.16
849.29	4302.78
849.47	4480.96
849.64	6692.76
849.81	6277.02
849.98	4542.39
850.15	3721.16
850.32	3860.42
850.49	4917.17
850.66	3082.19
850.84	4976.56
851.01	5169.07
851.18	4894.65
851.35	3911.62
851.52	3524.55
851.69	6027.17
851.86	4720.57
852.03	3764.17
852.20	3524.55
852.37	4665.27
852.54	5226.42
852.72	4218.82
852.89	5310.38
853.06	4116.42
853.23	4886.45
853.40	3667.91
853.57	3526.60
853.74	4782.01
853.91	5971.88
854.08	3788.74
854.25	2994.13
854.42	4751.29
854.59	4777.91
854.76	2983.89
854.94	4255.68
855.11	4951.99
855.28	4274.11
855.45	4577.21
855.62	4184.00
855.79	5842.85
855.96	4929.46
856.13	4091.84
856.30	3366.86
856.47	5173.17
856.64	6854.55
856.81	6543.26
856.98	5715.88
857.15	5932.97
857.32	4736.95
857.49	3764.17
857.66	2848.72
857.83	5019.57
858.00	6442.91
858.17	6236.06
858.35	6451.10
858.52	6584.22
858.69	6002.60
858.86	3229.65
859.03	3588.04
859.20	4304.83
859.37	3856.33
859.54	2635.74
859.71	7440.27
859.88	5885.86
860.05	5066.67
860.22	4057.03
860.39	5363.63
860.56	3727.30
860.73	6772.63
860.90	3325.90
861.07	4820.92
861.24	4349.89
861.41	3561.42
861.58	3301.33
861.75	4251.58
861.92	5296.05
862.09	6178.72
862.26	3678.15
862.43	3405.77
862.60	4650.94
862.77	4951.99
862.94	3536.84
863.11	4214.72
863.28	4767.67
863.45	5769.13
863.62	3909.57
863.79	3776.45
863.96	7008.15
864.13	4360.13
864.30	4202.43
864.46	2914.26
864.63	3909.57
864.80	3971.01
864.97	5623.72
865.14	3702.73
865.31	4143.04
865.48	3469.26
865.65	4724.66
865.82	3155.92
865.99	7597.96
866.16	5988.26
866.33	5515.18
866.50	4237.25
866.67	8212.35
866.84	3854.28
867.01	4405.18
867.18	4310.97
867.35	5154.74
867.52	4333.50
867.69	3993.54
867.85	3782.60
868.02	5484.46
868.19	5318.57
868.36	3467.21
868.53	3495.88
868.70	6225.82
868.87	4968.37
869.04	4095.94
869.21	4614.07
869.38	5281.71
869.55	5896.10
869.72	4388.80
869.89	2863.06
870.05	4650.94
870.22	5461.93
870.39	3827.65
870.56	4884.41
870.73	5355.44
870.90	6887.32
871.07	3350.48
871.24	3563.47
871.41	5607.34
871.58	4628.41
871.74	3071.95
871.91	3583.95
872.08	4466.62
872.25	4218.82
872.42	3409.87
872.59	3389.39
872.76	5275.57
872.93	4951.99
873.10	6043.56
873.26	4546.49
873.43	4743.10
873.60	6657.95
873.77	3037.14
873.94	4194.24
874.11	4886.45
874.28	4362.17
874.45	3489.74
874.61	4005.83
874.78	4349.89
874.95	4929.46
875.12	3762.12
875.29	4706.23
875.46	4212.67
875.63	5959.59
875.79	4274.11
875.96	3215.31
876.13	5007.28
876.30	3897.28
876.47	3850.18
876.64	5457.84
876.80	5332.91
876.97	7243.67
877.14	3186.64
877.31	4171.71
877.48	3928.00
877.65	7219.09
877.81	4511.68
877.98	3229.65
878.15	4059.07
878.32	5582.76
878.49	6391.71
878.66	4470.72
878.82	5853.09
878.99	6541.21
879.16	3268.56
879.33	4800.44
879.50	5750.70
879.67	4827.06
879.83	5898.15
880.00	5130.16
880.17	4540.35
880.34	4646.84
880.51	5078.96
880.67	4939.70
880.84	4917.17
881.01	4067.27
881.18	3553.23
881.35	3004.37
881.51	4999.09
881.68	6860.70
881.85	4437.95
882.02	4683.70
882.18	4581.31
882.35	5126.07
882.52	4818.87
882.69	4501.44
882.86	6182.82
883.02	4478.91
883.19	3354.57
883.36	4978.61
883.53	4616.12
883.69	4962.23
883.86	3643.34
884.03	5189.55
884.20	5691.31
884.36	4339.65
884.53	4765.62
884.70	4550.59
884.87	4730.81
885.04	5521.32
885.20	6426.53
885.37	5005.24
885.54	4759.48
885.71	5537.71
885.87	5867.43
886.04	3014.61
886.21	6784.92
886.38	5466.03
886.54	4798.39
886.71	3364.81
886.88	3635.14
>>>>>End Processed Spectral Data<<<<<
