SpectraSuite Data File
++++++++++++++++++++++++++++++++++++
Date: Fri May 01 10:34:36 EST 2015
User: ocean
Dark Spectrum Present: No
Reference Spectrum Present: No
Number of Sampled Component Spectra: 1
Spectrometers: USB4E02642
Integration Time (usec): 150000 (USB4E02642)
Spectra Averaged: 1 (USB4E02642)
Boxcar Smoothing: 0 (USB4E02642)
Correct for Electrical Dark: No (USB4E02642)
Strobe/Lamp Enabled: No (USB4E02642)
Correct for Detector Non-linearity: No (USB4E02642)
Correct for Stray Light: No (USB4E02642)
Number of Pixels in Processed Spectrum: 3648
>>>>>Begin Processed Spectral Data<<<<<
179.22	997.36
179.43	997.36
179.65	997.36
179.86	1023.98
180.08	942.07
180.29	1310.70
180.51	1228.78
180.72	1341.42
180.94	1310.70
181.15	1181.68
181.37	1370.09
181.58	1171.44
181.80	1300.46
182.01	1333.23
182.23	1271.79
182.44	1282.03
182.66	1243.12
182.87	1294.32
183.09	1267.69
183.30	1220.59
183.52	1339.37
183.73	1304.56
183.95	1296.36
184.16	1282.03
184.38	1286.12
184.59	1308.65
184.81	1292.27
185.02	1320.94
185.24	1239.02
185.45	1322.99
185.67	1267.69
185.88	1255.40
186.10	1277.93
186.31	1292.27
186.53	1357.80
186.74	1214.45
186.96	1282.03
187.17	1306.60
187.39	1314.80
187.60	1316.84
187.81	1406.95
188.03	1265.64
188.24	1349.61
188.46	1304.56
188.67	1380.33
188.89	1206.25
189.10	1394.67
189.32	1374.19
189.53	1331.18
189.75	1312.75
189.96	1312.75
190.18	1273.84
190.39	1294.32
190.61	1296.36
190.82	1263.60
191.04	1394.67
191.25	1435.63
191.46	1347.56
191.68	1355.76
191.89	1433.58
192.11	1439.72
192.32	1310.70
192.54	1292.27
192.75	1257.45
192.97	1361.90
193.18	1339.37
193.40	1406.95
193.61	1320.94
193.83	1341.42
194.04	1366.00
194.25	1398.76
194.47	1376.24
194.68	1347.56
194.90	1269.74
195.11	1325.04
195.33	1341.42
195.54	1396.71
195.76	1386.47
195.97	1286.12
196.18	1335.28
196.40	1333.23
196.61	1265.64
196.83	1488.87
197.04	1273.84
197.26	1374.19
197.47	1421.29
197.69	1216.49
197.90	1230.83
198.11	1292.27
198.33	1343.47
198.54	1271.79
198.76	1443.82
198.97	1337.32
199.19	1245.16
199.40	1300.46
199.61	1259.50
199.83	1282.03
200.04	1294.32
200.26	1331.18
200.47	1320.94
200.69	1292.27
200.90	1415.15
201.11	1257.45
201.33	1239.02
201.54	1394.67
201.76	1341.42
201.97	1290.22
202.19	1368.04
202.40	1462.25
202.61	1322.99
202.83	1282.03
203.04	1341.42
203.26	1390.57
203.47	1263.60
203.68	1443.82
203.90	1259.50
204.11	1404.91
204.33	1234.93
204.54	1345.52
204.75	1290.22
204.97	1300.46
205.18	1230.83
205.40	1220.59
205.61	1304.56
205.83	1544.17
206.04	1296.36
206.25	1327.08
206.47	1402.86
206.68	1359.85
206.90	1327.08
207.11	1271.79
207.32	1196.01
207.54	1296.36
207.75	1316.84
207.97	1300.46
208.18	1263.60
208.39	1265.64
208.61	1347.56
208.82	1355.76
209.03	1380.33
209.25	1406.95
209.46	1376.24
209.68	1265.64
209.89	1343.47
210.10	1308.65
210.32	1361.90
210.53	1341.42
210.75	1419.24
210.96	1312.75
211.17	1279.98
211.39	1339.37
211.60	1282.03
211.82	1214.45
212.03	1288.17
212.24	1349.61
212.46	1349.61
212.67	1335.28
212.88	1255.40
213.10	1224.69
213.31	1390.57
213.53	1439.72
213.74	1415.15
213.95	1366.00
214.17	1331.18
214.38	1374.19
214.59	1314.80
214.81	1394.67
215.02	1406.95
215.23	1259.50
215.45	1245.16
215.66	1282.03
215.88	1361.90
216.09	1273.84
216.30	1345.52
216.52	1366.00
216.73	1185.77
216.94	1302.51
217.16	1353.71
217.37	1437.67
217.58	1343.47
217.80	1540.07
218.01	1318.89
218.22	1331.18
218.44	1224.69
218.65	1325.04
218.87	1306.60
219.08	1372.14
219.29	1370.09
219.51	1413.10
219.72	1296.36
219.93	1355.76
220.15	1427.43
220.36	1234.93
220.57	1329.13
220.79	1275.88
221.00	1253.36
221.21	1374.19
221.43	1304.56
221.64	1257.45
221.85	1269.74
222.07	1361.90
222.28	1370.09
222.49	1290.22
222.71	1224.69
222.92	1241.07
223.13	1198.06
223.35	1308.65
223.56	1312.75
223.77	1277.93
223.99	1277.93
224.20	1402.86
224.41	1325.04
224.63	1525.74
224.84	1269.74
225.05	1396.71
225.27	1417.19
225.48	1374.19
225.69	1339.37
225.91	1200.11
226.12	1333.23
226.33	1370.09
226.55	1279.98
226.76	1234.93
226.97	1267.69
227.19	1294.32
227.40	1279.98
227.61	1322.99
227.82	1351.66
228.04	1161.20
228.25	1271.79
228.46	1296.36
228.68	1380.33
228.89	1404.91
229.10	1251.31
229.32	1404.91
229.53	1243.12
229.74	1294.32
229.96	1316.84
230.17	1357.80
230.38	1484.78
230.59	1263.60
230.81	1366.00
231.02	1230.83
231.23	1198.06
231.45	1386.47
231.66	1273.84
231.87	1386.47
232.09	1300.46
232.30	1255.40
232.51	1402.86
232.72	1294.32
232.94	1191.92
233.15	1437.67
233.36	1277.93
233.58	1210.35
233.79	1347.56
234.00	1265.64
234.21	1284.08
234.43	1292.27
234.64	1273.84
234.85	1425.39
235.07	1331.18
235.28	1394.67
235.49	1282.03
235.70	1419.24
235.92	1318.89
236.13	1282.03
236.34	1411.05
236.56	1216.49
236.77	1259.50
236.98	1275.88
237.19	1314.80
237.41	1325.04
237.62	1368.04
237.83	1419.24
238.04	1343.47
238.26	1380.33
238.47	1386.47
238.68	1419.24
238.89	1239.02
239.11	1372.14
239.32	1232.88
239.53	1349.61
239.75	1245.16
239.96	1204.21
240.17	1251.31
240.38	1288.17
240.60	1318.89
240.81	1265.64
241.02	1347.56
241.23	1239.02
241.45	1361.90
241.66	1165.29
241.87	1374.19
242.08	1400.81
242.30	1282.03
242.51	1413.10
242.72	1204.21
242.93	1263.60
243.15	1306.60
243.36	1398.76
243.57	1368.04
243.78	1370.09
244.00	1308.65
244.21	1230.83
244.42	1361.90
244.63	1308.65
244.85	1343.47
245.06	1234.93
245.27	1388.52
245.48	1218.54
245.70	1392.62
245.91	1427.43
246.12	1259.50
246.33	1318.89
246.54	1447.91
246.76	1378.28
246.97	1406.95
247.18	1241.07
247.39	1245.16
247.61	1513.45
247.82	1296.36
248.03	1298.41
248.24	1372.14
248.45	1267.69
248.67	1298.41
248.88	1308.65
249.09	1312.75
249.30	1394.67
249.52	1322.99
249.73	1355.76
249.94	1382.38
250.15	1439.72
250.36	1331.18
250.58	1492.97
250.79	1380.33
251.00	1316.84
251.21	1394.67
251.43	1288.17
251.64	1507.30
251.85	1351.66
252.06	1329.13
252.27	1400.81
252.49	1347.56
252.70	1288.17
252.91	1312.75
253.12	1308.65
253.33	1339.37
253.55	1318.89
253.76	1263.60
253.97	1302.51
254.18	1331.18
254.39	1275.88
254.61	1306.60
254.82	1320.94
255.03	1361.90
255.24	1341.42
255.45	1318.89
255.67	1325.04
255.88	1298.41
256.09	1277.93
256.30	1271.79
256.51	1492.97
256.73	1402.86
256.94	1208.30
257.15	1404.91
257.36	1245.16
257.57	1361.90
257.78	1226.73
258.00	1337.32
258.21	1388.52
258.42	1304.56
258.63	1314.80
258.84	1366.00
259.06	1259.50
259.27	1316.84
259.48	1282.03
259.69	1335.28
259.90	1198.06
260.11	1454.06
260.33	1314.80
260.54	1288.17
260.75	1312.75
260.96	1347.56
261.17	1363.95
261.38	1343.47
261.60	1402.86
261.81	1419.24
262.02	1304.56
262.23	1298.41
262.44	1331.18
262.65	1357.80
262.87	1357.80
263.08	1390.57
263.29	1359.85
263.50	1296.36
263.71	1167.34
263.92	1351.66
264.13	1361.90
264.35	1361.90
264.56	1378.28
264.77	1382.38
264.98	1339.37
265.19	1247.21
265.40	1308.65
265.62	1368.04
265.83	1386.47
266.04	1284.08
266.25	1329.13
266.46	1337.32
266.67	1380.33
266.88	1388.52
267.10	1304.56
267.31	1392.62
267.52	1236.97
267.73	1271.79
267.94	1333.23
268.15	1243.12
268.36	1193.97
268.57	1452.01
268.79	1341.42
269.00	1333.23
269.21	1318.89
269.42	1382.38
269.63	1288.17
269.84	1288.17
270.05	1286.12
270.27	1236.97
270.48	1345.52
270.69	1302.51
270.90	1267.69
271.11	1343.47
271.32	1384.43
271.53	1273.84
271.74	1331.18
271.96	1304.56
272.17	1241.07
272.38	1322.99
272.59	1142.77
272.80	1284.08
273.01	1341.42
273.22	1277.93
273.43	1312.75
273.64	1245.16
273.86	1411.05
274.07	1263.60
274.28	1343.47
274.49	1406.95
274.70	1388.52
274.91	1341.42
275.12	1406.95
275.33	1202.16
275.54	1329.13
275.76	1341.42
275.97	1327.08
276.18	1331.18
276.39	1382.38
276.60	1353.71
276.81	1396.71
277.02	1327.08
277.23	1374.19
277.44	1339.37
277.65	1275.88
277.86	1269.74
278.08	1359.85
278.29	1384.43
278.50	1497.07
278.71	1230.83
278.92	1300.46
279.13	1181.68
279.34	1265.64
279.55	1327.08
279.76	1425.39
279.97	1279.98
280.18	1488.87
280.40	1357.80
280.61	1265.64
280.82	1329.13
281.03	1259.50
281.24	1400.81
281.45	1341.42
281.66	1222.64
281.87	1304.56
282.08	1296.36
282.29	1374.19
282.50	1198.06
282.71	1286.12
282.92	1439.72
283.13	1396.71
283.35	1292.27
283.56	1275.88
283.77	1273.84
283.98	1386.47
284.19	1314.80
284.40	1251.31
284.61	1284.08
284.82	1398.76
285.03	1466.35
285.24	1224.69
285.45	1214.45
285.66	1320.94
285.87	1329.13
286.08	1226.73
286.29	1331.18
286.50	1251.31
286.71	1329.13
286.93	1206.25
287.14	1310.70
287.35	1320.94
287.56	1318.89
287.77	1460.20
287.98	1374.19
288.19	1341.42
288.40	1372.14
288.61	1247.21
288.82	1368.04
289.03	1382.38
289.24	1384.43
289.45	1501.16
289.66	1318.89
289.87	1452.01
290.08	1284.08
290.29	1314.80
290.50	1347.56
290.71	1228.78
290.92	1423.34
291.13	1310.70
291.34	1380.33
291.55	1241.07
291.76	1247.21
291.97	1286.12
292.18	1314.80
292.39	1372.14
292.61	1386.47
292.82	1220.59
293.03	1492.97
293.24	1249.26
293.45	1167.34
293.66	1329.13
293.87	1277.93
294.08	1259.50
294.29	1302.51
294.50	1411.05
294.71	1402.86
294.92	1263.60
295.13	1343.47
295.34	1259.50
295.55	1165.29
295.76	1294.32
295.97	1435.63
296.18	1394.67
296.39	1310.70
296.60	1398.76
296.81	1206.25
297.02	1306.60
297.23	1435.63
297.44	1337.32
297.65	1353.71
297.86	1316.84
298.07	1198.06
298.28	1357.80
298.49	1216.49
298.70	1335.28
298.91	1310.70
299.12	1206.25
299.33	1310.70
299.54	1370.09
299.75	1357.80
299.96	1355.76
300.17	1443.82
300.38	1259.50
300.59	1255.40
300.80	1384.43
301.01	1292.27
301.22	1314.80
301.43	1359.85
301.64	1265.64
301.85	1267.69
302.06	1308.65
302.27	1284.08
302.48	1495.02
302.69	1255.40
302.89	1335.28
303.10	1357.80
303.31	1216.49
303.52	1284.08
303.73	1294.32
303.94	1312.75
304.15	1183.73
304.36	1290.22
304.57	1218.54
304.78	1357.80
304.99	1312.75
305.20	1306.60
305.41	1398.76
305.62	1398.76
305.83	1271.79
306.04	1292.27
306.25	1325.04
306.46	1279.98
306.67	1271.79
306.88	1370.09
307.09	1234.93
307.30	1230.83
307.51	1380.33
307.72	1308.65
307.93	1210.35
308.14	1304.56
308.35	1292.27
308.55	1302.51
308.76	1216.49
308.97	1261.55
309.18	1492.97
309.39	1337.32
309.60	1314.80
309.81	1388.52
310.02	1226.73
310.23	1312.75
310.44	1296.36
310.65	1341.42
310.86	1355.76
311.07	1411.05
311.28	1294.32
311.49	1300.46
311.70	1339.37
311.91	1218.54
312.11	1316.84
312.32	1308.65
312.53	1259.50
312.74	1327.08
312.95	1257.45
313.16	1366.00
313.37	1288.17
313.58	1189.87
313.79	1226.73
314.00	1327.08
314.21	1236.97
314.42	1257.45
314.63	1271.79
314.83	1402.86
315.04	1449.96
315.25	1355.76
315.46	1368.04
315.67	1290.22
315.88	1298.41
316.09	1298.41
316.30	1325.04
316.51	1368.04
316.72	1239.02
316.93	1263.60
317.13	1337.32
317.34	1234.93
317.55	1460.20
317.76	1265.64
317.97	1333.23
318.18	1370.09
318.39	1308.65
318.60	1257.45
318.81	1275.88
319.02	1325.04
319.23	1398.76
319.43	1359.85
319.64	1331.18
319.85	1245.16
320.06	1265.64
320.27	1341.42
320.48	1406.95
320.69	1337.32
320.90	1302.51
321.11	1347.56
321.31	1411.05
321.52	1329.13
321.73	1441.77
321.94	1306.60
322.15	1222.64
322.36	1511.40
322.57	1388.52
322.78	1216.49
322.98	1390.57
323.19	1284.08
323.40	1382.38
323.61	1353.71
323.82	1267.69
324.03	1226.73
324.24	1404.91
324.45	1359.85
324.65	1232.88
324.86	1316.84
325.07	1390.57
325.28	1269.74
325.49	1257.45
325.70	1411.05
325.91	1374.19
326.12	1325.04
326.32	1282.03
326.53	1320.94
326.74	1316.84
326.95	1322.99
327.16	1396.71
327.37	1400.81
327.58	1251.31
327.78	1316.84
327.99	1206.25
328.20	1226.73
328.41	1263.60
328.62	1218.54
328.83	1366.00
329.04	1239.02
329.24	1234.93
329.45	1236.97
329.66	1320.94
329.87	1363.95
330.08	1341.42
330.29	1284.08
330.49	1374.19
330.70	1200.11
330.91	1355.76
331.12	1298.41
331.33	1296.36
331.54	1349.61
331.74	1251.31
331.95	1363.95
332.16	1292.27
332.37	1284.08
332.58	1380.33
332.79	1308.65
332.99	1325.04
333.20	1261.55
333.41	1378.28
333.62	1380.33
333.83	1312.75
334.04	1331.18
334.24	1329.13
334.45	1189.87
334.66	1290.22
334.87	1275.88
335.08	1325.04
335.29	1290.22
335.49	1353.71
335.70	1279.98
335.91	1402.86
336.12	1439.72
336.33	1173.49
336.53	1284.08
336.74	1284.08
336.95	1337.32
337.16	1312.75
337.37	1255.40
337.57	1322.99
337.78	1316.84
337.99	1382.38
338.20	1331.18
338.41	1228.78
338.62	1239.02
338.82	1490.92
339.03	1288.17
339.24	1267.69
339.45	1345.52
339.65	1222.64
339.86	1255.40
340.07	1394.67
340.28	1294.32
340.49	1329.13
340.69	1292.27
340.90	1370.09
341.11	1267.69
341.32	1327.08
341.53	1226.73
341.73	1249.26
341.94	1288.17
342.15	1329.13
342.36	1382.38
342.57	1476.59
342.77	1316.84
342.98	1310.70
343.19	1288.17
343.40	1320.94
343.60	1366.00
343.81	1251.31
344.02	1370.09
344.23	1394.67
344.44	1204.21
344.64	1234.93
344.85	1345.52
345.06	1322.99
345.27	1290.22
345.47	1275.88
345.68	1292.27
345.89	1259.50
346.10	1445.87
346.30	1251.31
346.51	1316.84
346.72	1456.11
346.93	1279.98
347.13	1261.55
347.34	1398.76
347.55	1361.90
347.76	1251.31
347.97	1396.71
348.17	1259.50
348.38	1230.83
348.59	1327.08
348.80	1308.65
349.00	1265.64
349.21	1275.88
349.42	1347.56
349.63	1454.06
349.83	1271.79
350.04	1316.84
350.25	1300.46
350.45	1292.27
350.66	1263.60
350.87	1325.04
351.08	1183.73
351.28	1417.19
351.49	1245.16
351.70	1347.56
351.91	1251.31
352.11	1312.75
352.32	1241.07
352.53	1384.43
352.74	1243.12
352.94	1316.84
353.15	1261.55
353.36	1284.08
353.56	1265.64
353.77	1273.84
353.98	1341.42
354.19	1382.38
354.39	1277.93
354.60	1259.50
354.81	1322.99
355.02	1171.44
355.22	1378.28
355.43	1345.52
355.64	1306.60
355.84	1331.18
356.05	1249.26
356.26	1378.28
356.47	1320.94
356.67	1333.23
356.88	1314.80
357.09	1292.27
357.29	1302.51
357.50	1443.82
357.71	1234.93
357.92	1345.52
358.12	1247.21
358.33	1341.42
358.54	1220.59
358.74	1492.97
358.95	1353.71
359.16	1312.75
359.36	1228.78
359.57	1357.80
359.78	1404.91
359.98	1298.41
360.19	1308.65
360.40	1349.61
360.61	1398.76
360.81	1304.56
361.02	1218.54
361.23	1286.12
361.43	1243.12
361.64	1284.08
361.85	1378.28
362.05	1370.09
362.26	1325.04
362.47	1314.80
362.67	1247.21
362.88	1357.80
363.09	1189.87
363.29	1247.21
363.50	1251.31
363.71	1210.35
363.91	1368.04
364.12	1413.10
364.33	1292.27
364.53	1404.91
364.74	1273.84
364.95	1349.61
365.15	1230.83
365.36	1269.74
365.57	1304.56
365.77	1284.08
365.98	1316.84
366.19	1452.01
366.39	1232.88
366.60	1306.60
366.81	1153.01
367.01	1431.53
367.22	1386.47
367.43	1396.71
367.63	1296.36
367.84	1312.75
368.05	1341.42
368.25	1331.18
368.46	1335.28
368.67	1292.27
368.87	1265.64
369.08	1208.30
369.29	1187.82
369.49	1306.60
369.70	1355.76
369.91	1314.80
370.11	1247.21
370.32	1249.26
370.52	1265.64
370.73	1355.76
370.94	1241.07
371.14	1273.84
371.35	1378.28
371.56	1361.90
371.76	1366.00
371.97	1447.91
372.18	1179.63
372.38	1249.26
372.59	1349.61
372.79	1312.75
373.00	1271.79
373.21	1431.53
373.41	1341.42
373.62	1216.49
373.83	1251.31
374.03	1267.69
374.24	1333.23
374.44	1335.28
374.65	1368.04
374.86	1359.85
375.06	1222.64
375.27	1312.75
375.47	1290.22
375.68	1251.31
375.89	1339.37
376.09	1415.15
376.30	1282.03
376.50	1376.24
376.71	1366.00
376.92	1357.80
377.12	1394.67
377.33	1298.41
377.54	1320.94
377.74	1308.65
377.95	1447.91
378.15	1374.19
378.36	1269.74
378.57	1361.90
378.77	1470.44
378.98	1249.26
379.18	1282.03
379.39	1316.84
379.59	1306.60
379.80	1255.40
380.01	1333.23
380.21	1398.76
380.42	1290.22
380.62	1398.76
380.83	1177.58
381.04	1267.69
381.24	1333.23
381.45	1370.09
381.65	1417.19
381.86	1255.40
382.06	1439.72
382.27	1306.60
382.48	1245.16
382.68	1314.80
382.89	1288.17
383.09	1421.29
383.30	1300.46
383.51	1282.03
383.71	1406.95
383.92	1226.73
384.12	1312.75
384.33	1284.08
384.53	1220.59
384.74	1361.90
384.94	1335.28
385.15	1322.99
385.36	1331.18
385.56	1263.60
385.77	1261.55
385.97	1259.50
386.18	1214.45
386.38	1284.08
386.59	1294.32
386.79	1277.93
387.00	1247.21
387.21	1310.70
387.41	1384.43
387.62	1439.72
387.82	1314.80
388.03	1386.47
388.23	1279.98
388.44	1341.42
388.64	1204.21
388.85	1353.71
389.06	1290.22
389.26	1312.75
389.47	1355.76
389.67	1288.17
389.88	1433.58
390.08	1167.34
390.29	1347.56
390.49	1398.76
390.70	1443.82
390.90	1341.42
391.11	1243.12
391.31	1282.03
391.52	1255.40
391.72	1333.23
391.93	1300.46
392.13	1349.61
392.34	1198.06
392.55	1279.98
392.75	1353.71
392.96	1292.27
393.16	1341.42
393.37	1284.08
393.57	1230.83
393.78	1310.70
393.98	1374.19
394.19	1318.89
394.39	1269.74
394.60	1366.00
394.80	1310.70
395.01	1282.03
395.21	1431.53
395.42	1355.76
395.62	1265.64
395.83	1251.31
396.03	1339.37
396.24	1460.20
396.44	1423.34
396.65	1366.00
396.85	1263.60
397.06	1251.31
397.26	1212.40
397.47	1316.84
397.67	1392.62
397.88	1279.98
398.08	1236.97
398.29	1306.60
398.49	1325.04
398.70	1329.13
398.90	1267.69
399.11	1275.88
399.31	1472.49
399.52	1251.31
399.72	1386.47
399.93	1429.48
400.13	1218.54
400.34	1413.10
400.54	1429.48
400.75	1341.42
400.95	1368.04
401.15	1439.72
401.36	1228.78
401.56	1322.99
401.77	1263.60
401.97	1243.12
402.18	1316.84
402.38	1308.65
402.59	1337.32
402.79	1200.11
403.00	1292.27
403.20	1404.91
403.41	1286.12
403.61	1216.49
403.82	1333.23
404.02	1265.64
404.22	1308.65
404.43	1249.26
404.63	1308.65
404.84	1458.15
405.04	1306.60
405.25	1290.22
405.45	1249.26
405.66	1337.32
405.86	1357.80
406.07	1339.37
406.27	1279.98
406.47	1331.18
406.68	1296.36
406.88	1357.80
407.09	1312.75
407.29	1366.00
407.50	1284.08
407.70	1337.32
407.91	1259.50
408.11	1316.84
408.31	1417.19
408.52	1378.28
408.72	1288.17
408.93	1347.56
409.13	1452.01
409.34	1560.55
409.54	1316.84
409.74	1454.06
409.95	1239.02
410.15	1331.18
410.36	1286.12
410.56	1282.03
410.77	1435.63
410.97	1232.88
411.17	1464.30
411.38	1372.14
411.58	1353.71
411.79	1333.23
411.99	1380.33
412.19	1470.44
412.40	1372.14
412.60	1425.39
412.81	1284.08
413.01	1388.52
413.22	1421.29
413.42	1368.04
413.62	1394.67
413.83	1437.67
414.03	1322.99
414.24	1478.63
414.44	1394.67
414.64	1468.39
414.85	1363.95
415.05	1322.99
415.26	1370.09
415.46	1316.84
415.66	1366.00
415.87	1337.32
416.07	1333.23
416.28	1320.94
416.48	1370.09
416.68	1468.39
416.89	1443.82
417.09	1466.35
417.29	1372.14
417.50	1366.00
417.70	1308.65
417.91	1435.63
418.11	1353.71
418.31	1335.28
418.52	1312.75
418.72	1386.47
418.93	1402.86
419.13	1398.76
419.33	1335.28
419.54	1413.10
419.74	1351.66
419.94	1454.06
420.15	1372.14
420.35	1314.80
420.56	1320.94
420.76	1374.19
420.96	1357.80
421.17	1404.91
421.37	1386.47
421.57	1392.62
421.78	1409.00
421.98	1396.71
422.18	1402.86
422.39	1435.63
422.59	1349.61
422.80	1419.24
423.00	1341.42
423.20	1413.10
423.41	1331.18
423.61	1398.76
423.81	1394.67
424.02	1368.04
424.22	1454.06
424.42	1441.77
424.63	1413.10
424.83	1425.39
425.03	1370.09
425.24	1439.72
425.44	1380.33
425.64	1349.61
425.85	1433.58
426.05	1345.52
426.25	1435.63
426.46	1413.10
426.66	1443.82
426.86	1595.37
427.07	1486.83
427.27	1464.30
427.47	1609.70
427.68	1378.28
427.88	1490.92
428.08	1630.18
428.29	1347.56
428.49	1392.62
428.69	1615.85
428.90	1357.80
429.10	1441.77
429.30	1458.15
429.51	1386.47
429.71	1521.64
429.91	1384.43
430.12	1470.44
430.32	1687.53
430.52	1413.10
430.72	1409.00
430.93	1454.06
431.13	1363.95
431.33	1441.77
431.54	1484.78
431.74	1357.80
431.94	1398.76
432.15	1454.06
432.35	1423.34
432.55	1374.19
432.76	1325.04
432.96	1437.67
433.16	1499.11
433.36	1452.01
433.57	1431.53
433.77	1533.93
433.97	1447.91
434.18	1456.11
434.38	1427.43
434.58	1472.49
434.78	1529.83
434.99	1476.59
435.19	1533.93
435.39	1345.52
435.60	1486.83
435.80	1654.76
436.00	1409.00
436.20	1423.34
436.41	1396.71
436.61	1456.11
436.81	1415.15
437.02	1552.36
437.22	1394.67
437.42	1499.11
437.62	1466.35
437.83	1628.14
438.03	1460.20
438.23	1517.54
438.43	1505.26
438.64	1589.22
438.84	1423.34
439.04	1468.39
439.25	1574.89
439.45	1597.42
439.65	1449.96
439.85	1462.25
440.06	1452.01
440.26	1587.18
440.46	1525.74
440.66	1546.22
440.87	1468.39
441.07	1570.79
441.27	1529.83
441.47	1419.24
441.68	1505.26
441.88	1529.83
442.08	1515.50
442.28	1585.13
442.49	1527.78
442.69	1611.75
442.89	1435.63
443.09	1503.21
443.30	1447.91
443.50	1548.26
443.70	1505.26
443.90	1464.30
444.10	1540.07
444.31	1562.60
444.51	1357.80
444.71	1521.64
444.91	1572.84
445.12	1544.17
445.32	1689.57
445.52	1578.98
445.72	1425.39
445.93	1447.91
446.13	1521.64
446.33	1552.36
446.53	1533.93
446.73	1429.48
446.94	1423.34
447.14	1570.79
447.34	1421.29
447.54	1570.79
447.74	1394.67
447.95	1531.88
448.15	1517.54
448.35	1515.50
448.55	1464.30
448.76	1454.06
448.96	1511.40
449.16	1486.83
449.36	1531.88
449.56	1417.19
449.77	1511.40
449.97	1646.57
450.17	1417.19
450.37	1546.22
450.57	1542.12
450.78	1554.41
450.98	1535.98
451.18	1548.26
451.38	1439.72
451.58	1511.40
451.79	1419.24
451.99	1511.40
452.19	1460.20
452.39	1605.61
452.59	1568.74
452.79	1507.30
453.00	1583.08
453.20	1531.88
453.40	1462.25
453.60	1628.14
453.80	1509.35
454.01	1544.17
454.21	1443.82
454.41	1538.02
454.61	1542.12
454.81	1587.18
455.01	1585.13
455.22	1497.07
455.42	1593.32
455.62	1759.21
455.82	1517.54
456.02	1595.37
456.22	1478.63
456.43	1445.87
456.63	1564.65
456.83	1538.02
457.03	1611.75
457.23	1509.35
457.43	1501.16
457.64	1538.02
457.84	1597.42
458.04	1519.59
458.24	1499.11
458.44	1617.90
458.64	1529.83
458.84	1601.51
459.05	1564.65
459.25	1564.65
459.45	1576.94
459.65	1585.13
459.85	1599.46
460.05	1499.11
460.25	1705.96
460.46	1689.57
460.66	1624.04
460.86	1503.21
461.06	1634.28
461.26	1578.98
461.46	1697.77
461.66	1628.14
461.87	1685.48
462.07	1587.18
462.27	1689.57
462.47	1581.03
462.67	1699.81
462.87	1699.81
463.07	1513.45
463.27	1708.01
463.48	1624.04
463.68	1601.51
463.88	1595.37
464.08	1636.33
464.28	1630.18
464.48	1607.66
464.68	1650.66
464.88	1628.14
465.08	1630.18
465.29	1642.47
465.49	1538.02
465.69	1744.87
465.89	1789.92
466.09	1738.73
466.29	1611.75
466.49	1708.01
466.69	1624.04
466.89	1695.72
467.10	1722.34
467.30	1644.52
467.50	1828.84
467.70	1619.94
467.90	1718.25
468.10	1740.77
468.30	1636.33
468.50	1687.53
468.70	1669.09
468.90	1681.38
469.10	1587.18
469.31	1804.26
469.51	1765.35
469.71	1650.66
469.91	1722.34
470.11	1794.02
470.31	1720.29
470.51	1708.01
470.71	1687.53
470.91	1722.34
471.11	1716.20
471.31	1734.63
471.51	1861.60
471.71	1755.11
471.92	1738.73
472.12	1789.92
472.32	1785.83
472.52	1875.94
472.72	1761.25
472.92	1845.22
473.12	1804.26
473.32	1851.36
473.52	1873.89
473.72	1966.05
473.92	1968.10
474.12	1951.71
474.32	1908.71
474.52	1976.29
474.72	1927.14
474.92	1939.43
475.13	1935.33
475.33	1935.33
475.53	1904.61
475.73	2029.54
475.93	1982.43
476.13	2013.15
476.33	1974.24
476.53	2054.11
476.73	1923.04
476.93	2109.41
477.13	2125.79
477.33	2119.65
477.53	2246.62
477.73	2209.76
477.93	2160.61
478.13	2377.69
478.33	2338.78
478.53	2349.02
478.73	2482.14
478.93	2377.69
479.13	2326.49
479.33	2385.88
479.53	2437.08
479.73	2645.98
479.93	2566.10
480.13	2553.82
480.33	2781.14
480.53	2766.81
480.73	2770.90
480.93	2938.84
481.13	2826.20
481.34	2885.59
481.54	2906.07
481.74	3020.75
481.94	3084.24
482.14	3346.38
482.34	3258.32
482.54	3278.80
482.74	3469.26
482.94	3561.42
483.14	3475.40
483.34	3753.93
483.54	3731.40
483.74	3846.09
483.94	3991.49
484.14	4075.46
484.34	4155.33
484.54	4339.65
484.74	4462.52
484.94	4681.66
485.14	4730.81
485.34	4919.22
485.54	4868.02
485.74	5298.10
485.93	5386.16
486.13	5433.26
486.33	5752.74
486.53	5793.70
486.73	6207.39
486.93	6537.12
487.13	6518.68
487.33	6946.71
487.53	7020.44
487.73	7350.16
487.93	7567.24
488.13	8179.59
488.33	8290.18
488.53	8679.29
488.73	8804.22
488.93	9285.49
489.13	9551.73
489.33	10018.66
489.53	10786.65
489.73	11056.98
489.93	11186.01
490.13	11841.36
490.33	12455.75
490.53	12889.92
490.73	13358.90
490.93	13948.72
491.13	14651.17
491.33	14741.28
491.53	15597.33
491.73	15986.44
491.93	16588.55
492.12	17227.51
492.32	17942.25
492.52	18183.91
492.72	19103.45
492.92	19400.41
493.12	19640.02
493.32	20483.78
493.52	20760.26
493.72	21042.88
493.92	21661.37
494.12	22296.24
494.32	22208.17
494.52	22580.90
494.72	23086.75
494.92	23463.58
495.12	23926.42
495.31	23881.36
495.51	24356.49
495.71	24592.01
495.91	24641.16
496.11	24635.02
496.31	25157.25
496.51	25167.49
496.71	25181.82
496.91	25116.29
497.11	25376.38
497.31	25284.22
497.51	25097.86
497.71	24882.82
497.90	24714.89
498.10	24587.91
498.30	24528.52
498.50	23987.86
498.70	23977.62
498.90	23447.19
499.10	22800.04
499.30	22496.94
499.50	22259.37
499.70	21874.35
499.89	21423.80
500.09	20643.52
500.29	20326.09
500.49	19967.70
500.69	19123.93
500.89	18464.49
501.09	17913.58
501.29	17483.51
501.49	16891.65
501.69	16322.31
501.88	15546.13
502.08	15116.06
502.28	14602.02
502.48	14006.06
502.68	13471.54
502.88	12650.30
503.08	12087.11
503.28	11681.61
503.47	11030.36
503.67	10631.01
503.87	10129.25
504.07	9654.12
504.27	9125.75
504.47	8773.50
504.67	8302.47
504.87	7909.26
505.06	7546.76
505.26	7139.22
505.46	6592.41
505.66	6530.97
505.86	6055.84
506.06	5937.06
506.26	5459.88
506.45	5324.72
506.65	5027.76
506.85	4681.66
507.05	4560.83
507.25	4161.47
507.45	4290.49
507.65	4130.75
507.84	3917.76
508.04	3647.43
508.24	3551.18
508.44	3604.42
508.64	3377.10
508.84	3297.23
509.04	3286.99
509.23	3166.16
509.43	3235.79
509.63	3135.44
509.83	2938.84
510.03	2822.10
510.23	2955.22
510.42	2867.16
510.62	3002.32
510.82	2865.11
511.02	2967.51
511.22	2879.44
511.42	2791.38
511.61	2848.72
511.81	2897.88
512.01	2713.56
512.21	2750.42
512.41	2781.14
512.60	2777.05
512.80	2799.57
513.00	2822.10
513.20	2770.90
513.40	2635.74
513.60	2740.18
513.79	2781.14
513.99	2754.52
514.19	2844.63
514.39	2785.24
514.59	2736.09
514.78	2885.59
514.98	2826.20
515.18	2875.35
515.38	2791.38
515.58	2908.12
515.77	2832.34
515.97	2811.86
516.17	2738.13
516.37	2789.33
516.57	2803.67
516.76	2889.68
516.96	2818.00
517.16	2924.50
517.36	2797.53
517.56	2861.01
517.75	2734.04
517.95	2752.47
518.15	2885.59
518.35	2832.34
518.55	2881.49
518.74	2926.55
518.94	2770.90
519.14	2824.15
519.34	2940.88
519.53	2887.64
519.73	2756.57
519.93	2824.15
520.13	2963.41
520.32	2965.46
520.52	2848.72
520.72	3094.48
520.92	2828.24
521.12	2895.83
521.31	2881.49
521.51	2822.10
521.71	2967.51
521.91	2918.36
522.10	2938.84
522.30	2996.18
522.50	3026.90
522.70	3110.86
522.89	2822.10
523.09	2971.60
523.29	2834.39
523.49	3008.47
523.68	3039.19
523.88	3039.19
524.08	3102.67
524.28	2996.18
524.47	3094.48
524.67	3018.71
524.87	2922.45
525.07	3071.95
525.26	3045.33
525.46	3002.32
525.66	3100.62
525.86	3012.56
526.05	3037.14
526.25	2947.03
526.45	2904.02
526.64	3057.62
526.84	3004.37
527.04	2979.79
527.24	3000.27
527.43	2971.60
527.63	3104.72
527.83	3184.59
528.03	3039.19
528.22	3213.26
528.42	3076.05
528.62	3145.68
528.81	2973.65
529.01	3020.75
529.21	2893.78
529.41	3110.86
529.60	3137.49
529.80	3131.34
530.00	3117.01
530.19	3016.66
530.39	3147.73
530.59	3071.95
530.79	3049.43
530.98	3063.76
531.18	3041.23
531.38	3057.62
531.57	3123.15
531.77	3114.96
531.97	3086.29
532.16	3051.47
532.36	3108.82
532.56	3061.71
532.76	3196.88
532.95	3190.74
533.15	3151.82
533.35	3196.88
533.54	3229.65
533.74	3069.91
533.94	3200.98
534.13	2973.65
534.33	3340.24
534.53	3205.07
534.72	3151.82
534.92	3215.31
535.12	3241.93
535.31	3178.45
535.51	3080.14
535.71	3194.83
535.90	3317.71
536.10	3178.45
536.30	3217.36
536.49	3174.35
536.69	3188.69
536.89	3168.21
537.08	3186.64
537.28	3160.02
537.48	3266.51
537.67	3225.55
537.87	3254.22
538.07	3219.41
538.26	3135.44
538.46	3092.43
538.66	3141.58
538.85	3209.17
539.05	3405.77
539.25	3059.67
539.44	3303.37
539.64	3069.91
539.84	3360.72
540.03	3078.10
540.23	3325.90
540.42	3127.25
540.62	3516.36
540.82	3293.13
541.01	3207.12
541.21	3225.55
541.41	3217.36
541.60	3190.74
541.80	3342.28
542.00	3084.24
542.19	3301.33
542.39	3246.03
542.58	3235.79
542.78	3229.65
542.98	3237.84
543.17	3119.06
543.37	3266.51
543.57	3264.46
543.76	3354.57
543.96	3295.18
544.15	3270.61
544.35	3289.04
544.55	3221.45
544.74	3303.37
544.94	3422.16
545.13	3225.55
545.33	3477.45
545.53	3289.04
545.72	3344.33
545.92	3319.76
546.11	3291.09
546.31	3354.57
546.51	3330.00
546.70	3401.68
546.90	3360.72
547.09	3180.50
547.29	3243.98
547.49	3317.71
547.68	3297.23
547.88	3315.66
548.07	3448.78
548.27	3338.19
548.47	3299.28
548.66	3346.38
548.86	3346.38
549.05	3248.08
549.25	3270.61
549.45	3309.52
549.64	3252.17
549.84	3413.96
550.03	3391.44
550.23	3416.01
550.42	3379.15
550.62	3321.81
550.82	3176.40
551.01	3385.29
551.21	3260.37
551.40	3360.72
551.60	3370.96
551.79	3416.01
551.99	3284.94
552.19	3305.42
552.38	3360.72
552.58	3383.24
552.77	3307.47
552.97	3420.11
553.16	3465.16
553.36	3452.88
553.55	3428.30
553.75	3397.58
553.95	3286.99
554.14	3477.45
554.34	3362.76
554.53	3416.01
554.73	3297.23
554.92	3489.74
555.12	3459.02
555.31	3370.96
555.51	3522.51
555.70	3422.16
555.90	3309.52
556.09	3330.00
556.29	3438.54
556.49	3487.69
556.68	3467.21
556.88	3442.64
557.07	3473.36
557.27	3432.40
557.46	3512.27
557.66	3381.20
557.85	3284.94
558.05	3563.47
558.24	3471.31
558.44	3430.35
558.63	3526.60
558.83	3411.92
559.02	3340.24
559.22	3405.77
559.41	3530.70
559.61	3725.26
559.80	3588.04
560.00	3321.81
560.19	3373.00
560.39	3461.07
560.58	3631.05
560.78	3418.06
560.97	3551.18
561.17	3487.69
561.36	3549.13
561.56	3350.48
561.75	3438.54
561.95	3477.45
562.14	3596.23
562.34	3561.42
562.53	3512.27
562.73	3444.68
562.92	3405.77
563.12	3399.63
563.31	3524.55
563.51	3430.35
563.70	3612.62
563.90	3418.06
564.09	3334.09
564.29	3430.35
564.48	3485.64
564.68	3483.59
564.87	3540.94
565.07	3616.71
565.26	3477.45
565.46	3532.75
565.65	3553.23
565.85	3444.68
566.04	3436.49
566.24	3493.83
566.43	3495.88
566.63	3340.24
566.82	3469.26
567.01	3456.97
567.21	3481.55
567.40	3565.51
567.60	3444.68
567.79	3672.01
567.99	3626.95
568.18	3528.65
568.38	3471.31
568.57	3583.95
568.77	3526.60
568.96	3674.06
569.15	3461.07
569.35	3575.75
569.54	3782.60
569.74	3493.83
569.93	3471.31
570.13	3602.38
570.32	3631.05
570.52	3575.75
570.71	3616.71
570.90	3504.07
571.10	3594.19
571.29	3594.19
571.49	3602.38
571.68	3434.44
571.88	3596.23
572.07	3616.71
572.26	3565.51
572.46	3459.02
572.65	3698.63
572.85	3651.53
573.04	3510.22
573.24	3680.20
573.43	3694.54
573.62	3657.67
573.82	3444.68
574.01	3606.47
574.21	3631.05
574.40	3504.07
574.59	3424.20
574.79	3657.67
574.98	3606.47
575.18	3629.00
575.37	3712.97
575.56	3528.65
575.76	3518.41
575.95	3649.48
576.15	3473.36
576.34	3577.80
576.53	3604.42
576.73	3733.45
576.92	3569.61
577.12	3569.61
577.31	3768.26
577.50	3422.16
577.70	3581.90
577.89	3590.09
578.09	3794.89
578.28	3583.95
578.47	3502.03
578.67	3770.31
578.86	3594.19
579.06	3770.31
579.25	3651.53
579.44	3596.23
579.64	3794.89
579.83	3510.22
580.02	3571.66
580.22	3567.56
580.41	3700.68
580.61	3741.64
580.80	3608.52
580.99	3581.90
581.19	3731.40
581.38	3755.97
581.57	3682.25
581.77	3624.90
581.96	3633.10
582.15	3639.24
582.35	3698.63
582.54	3618.76
582.73	3819.46
582.93	3692.49
583.12	3807.17
583.32	3590.09
583.51	3520.46
583.70	3594.19
583.90	3712.97
584.09	3721.16
584.28	3667.91
584.48	3563.47
584.67	3751.88
584.86	3672.01
585.06	3784.65
585.25	3655.62
585.44	3698.63
585.64	3672.01
585.83	3891.14
586.02	3794.89
586.22	3710.92
586.41	3622.86
586.60	3672.01
586.80	3569.61
586.99	3610.57
587.18	3708.87
587.38	3680.20
587.57	3649.48
587.76	3629.00
587.96	3651.53
588.15	3801.03
588.34	3583.95
588.53	3803.08
588.73	3731.40
588.92	3692.49
589.11	3839.94
589.31	3749.83
589.50	3753.93
589.69	3702.73
589.89	3739.59
590.08	3692.49
590.27	3663.82
590.47	3766.21
590.66	3741.64
590.85	3786.69
591.04	3737.54
591.24	3678.15
591.43	3786.69
591.62	3602.38
591.82	3731.40
592.01	3815.37
592.20	3788.74
592.39	3712.97
592.59	3745.73
592.78	3760.07
592.97	3766.21
593.17	3700.68
593.36	3561.42
593.55	3807.17
593.74	3635.14
593.94	3827.65
594.13	3694.54
594.32	3745.73
594.52	3583.95
594.71	3831.75
594.90	3819.46
595.09	3803.08
595.29	3723.21
595.48	3760.07
595.67	3778.50
595.86	3782.60
596.06	3848.13
596.25	3696.58
596.44	3841.99
596.63	3641.29
596.83	3911.62
597.02	3801.03
597.21	3690.44
597.40	3860.42
597.60	3856.33
597.79	3790.79
597.98	3776.45
598.17	3766.21
598.37	3891.14
598.56	3696.58
598.75	3704.78
598.94	3723.21
599.14	3758.02
599.33	3702.73
599.52	3755.97
599.71	3850.18
599.91	3792.84
600.10	3643.34
600.29	3692.49
600.48	3719.11
600.68	3815.37
600.87	3686.34
601.06	3897.28
601.25	3901.38
601.44	3837.89
601.64	3782.60
601.83	4018.11
602.02	3784.65
602.21	3817.41
602.41	3798.98
602.60	3743.69
602.79	3885.00
602.98	4020.16
603.17	3751.88
603.37	3878.85
603.56	3833.80
603.75	3809.22
603.94	3841.99
604.13	3897.28
604.33	3794.89
604.52	3803.08
604.71	3901.38
604.90	3811.27
605.09	3923.91
605.29	3983.30
605.48	3960.77
605.67	3858.37
605.86	3895.24
606.05	3889.09
606.25	3753.93
606.44	3919.81
606.63	3897.28
606.82	3928.00
607.01	3792.84
607.20	3864.52
607.40	3854.28
607.59	3889.09
607.78	3981.25
607.97	3934.15
608.16	3917.76
608.36	3889.09
608.55	3774.41
608.74	3946.44
608.93	3893.19
609.12	3823.56
609.31	3762.12
609.51	3893.19
609.70	4040.64
609.89	3819.46
610.08	3866.56
610.27	3870.66
610.46	3936.20
610.66	3911.62
610.85	3885.00
611.04	3882.95
611.23	4036.55
611.42	3930.05
611.61	3819.46
611.80	3880.90
612.00	4024.26
612.19	3938.24
612.38	4003.78
612.57	3936.20
612.76	3977.16
612.95	4138.94
613.14	4151.23
613.34	3905.48
613.53	3866.56
613.72	4009.92
613.91	3860.42
614.10	4085.70
614.29	3868.61
614.48	3936.20
614.67	3977.16
614.87	4063.17
615.06	4030.40
615.25	4063.17
615.44	3909.57
615.63	3909.57
615.82	3956.68
616.01	4032.45
616.20	3905.48
616.40	3981.25
616.59	4020.16
616.78	3903.43
616.97	3934.15
617.16	4001.73
617.35	4073.41
617.54	3995.59
617.73	4100.03
617.92	3964.87
618.12	3981.25
618.31	4057.03
618.50	4147.14
618.69	4118.47
618.88	3899.33
619.07	4014.02
619.26	3952.58
619.45	3966.92
619.64	4040.64
619.83	4073.41
620.02	4169.66
620.22	3952.58
620.41	4026.31
620.60	4169.66
620.79	4106.18
620.98	3850.18
621.17	3870.66
621.36	4169.66
621.55	3905.48
621.74	4274.11
621.93	4093.89
622.12	4173.76
622.31	4186.05
622.51	4112.32
622.70	4022.21
622.89	4130.75
623.08	4317.12
623.27	4050.88
623.46	3944.39
623.65	4153.28
623.84	3981.25
624.03	4253.63
624.22	4138.94
624.41	4169.66
624.60	4044.74
624.79	4083.65
624.98	4298.69
625.17	4186.05
625.36	4005.83
625.55	4091.84
625.74	4020.16
625.94	4208.58
626.13	4087.75
626.32	4114.37
626.51	4093.89
626.70	4149.18
626.89	4022.21
627.08	4218.82
627.27	4233.15
627.46	4184.00
627.65	4069.31
627.84	4106.18
628.03	4163.52
628.22	4091.84
628.41	4241.34
628.60	3983.30
628.79	4106.18
628.98	4190.14
629.17	4097.99
629.36	4122.56
629.55	4059.07
629.74	4188.10
629.93	3983.30
630.12	4261.82
630.31	4151.23
630.50	4163.52
630.69	4151.23
630.88	4083.65
631.07	4188.10
631.26	4165.57
631.45	4067.27
631.64	4165.57
631.83	4165.57
632.02	4257.73
632.21	4153.28
632.40	4196.29
632.59	4163.52
632.78	4175.81
632.97	4190.14
633.16	4237.25
633.35	4108.23
633.54	4165.57
633.73	3991.49
633.92	3989.44
634.11	4132.80
634.30	4155.33
634.49	3993.54
634.68	4100.03
634.87	4239.30
635.06	4067.27
635.25	3979.20
635.44	4194.24
635.63	4071.36
635.82	4128.70
636.01	4167.62
636.20	4175.81
636.39	4130.75
636.58	4206.53
636.77	4140.99
636.96	3960.77
637.15	4253.63
637.34	4153.28
637.53	4081.60
637.72	4110.27
637.91	4186.05
638.09	4222.91
638.28	4042.69
638.47	4134.85
638.66	4206.53
638.85	3977.16
639.04	4265.92
639.23	4073.41
639.42	4114.37
639.61	4169.66
639.80	4087.75
639.99	4069.31
640.18	4132.80
640.37	4294.59
640.56	4093.89
640.75	4050.88
640.94	4132.80
641.13	4087.75
641.32	4202.43
641.50	4124.61
641.69	4122.56
641.88	3979.20
642.07	3989.44
642.26	4190.14
642.45	4163.52
642.64	4083.65
642.83	4224.96
643.02	4073.41
643.21	4114.37
643.40	4132.80
643.59	3985.35
643.77	3940.29
643.96	4204.48
644.15	4190.14
644.34	4026.31
644.53	4011.97
644.72	3964.87
644.91	4022.21
645.10	4020.16
645.29	4093.89
645.48	4087.75
645.67	4020.16
645.85	4155.33
646.04	3897.28
646.23	4016.07
646.42	4091.84
646.61	3962.82
646.80	4075.46
646.99	3946.44
647.18	4034.50
647.37	4052.93
647.55	4124.61
647.74	4177.86
647.93	3968.96
648.12	4030.40
648.31	3971.01
648.50	4083.65
648.69	4081.60
648.88	4034.50
649.06	4026.31
649.25	3981.25
649.44	3928.00
649.63	3930.05
649.82	3975.11
650.01	3911.62
650.20	3962.82
650.39	3893.19
650.57	4110.27
650.76	4138.94
650.95	4089.79
651.14	4003.78
651.33	4026.31
651.52	4067.27
651.70	4186.05
651.89	3950.53
652.08	3905.48
652.27	4315.07
652.46	4075.46
652.65	4057.03
652.84	4159.42
653.02	4132.80
653.21	4038.59
653.40	4097.99
653.59	4011.97
653.78	4124.61
653.97	4069.31
654.15	4126.66
654.34	3868.61
654.53	3772.36
654.72	3928.00
654.91	4065.22
655.10	4007.87
655.28	4143.04
655.47	3971.01
655.66	3878.85
655.85	4104.13
656.04	3962.82
656.23	3966.92
656.41	3954.63
656.60	4083.65
656.79	4124.61
656.98	3975.11
657.17	3956.68
657.35	4114.37
657.54	3907.52
657.73	3878.85
657.92	4155.33
658.11	4089.79
658.29	3919.81
658.48	3915.72
658.67	4079.55
658.86	4138.94
659.05	3946.44
659.23	4093.89
659.42	3932.10
659.61	4028.35
659.80	4028.35
659.99	3874.76
660.17	4016.07
660.36	4036.55
660.55	3915.72
660.74	4310.97
660.92	4016.07
661.11	4001.73
661.30	3950.53
661.49	3913.67
661.68	3868.61
661.86	3864.52
662.05	4224.96
662.24	4046.79
662.43	3946.44
662.61	3966.92
662.80	4016.07
662.99	3815.37
663.18	3971.01
663.37	3919.81
663.55	4110.27
663.74	4145.09
663.93	3852.23
664.12	4106.18
664.30	3983.30
664.49	3903.43
664.68	3948.48
664.87	3968.96
665.05	4007.87
665.24	4048.83
665.43	3913.67
665.62	3913.67
665.80	4061.12
665.99	4007.87
666.18	4003.78
666.37	3948.48
666.55	3960.77
666.74	3862.47
666.93	3946.44
667.11	3954.63
667.30	3917.76
667.49	3909.57
667.68	3991.49
667.86	3946.44
668.05	3968.96
668.24	3909.57
668.43	4079.55
668.61	3954.63
668.80	3960.77
668.99	3885.00
669.17	4108.23
669.36	3960.77
669.55	3862.47
669.74	3790.79
669.92	3862.47
670.11	3928.00
670.30	4065.22
670.48	3950.53
670.67	3815.37
670.86	3854.28
671.05	3891.14
671.23	3897.28
671.42	3868.61
671.61	3936.20
671.79	3975.11
671.98	3895.24
672.17	3893.19
672.35	4118.47
672.54	4022.21
672.73	3934.15
672.91	4052.93
673.10	3977.16
673.29	3772.36
673.48	3989.44
673.66	3987.40
673.85	3960.77
674.04	3905.48
674.22	4114.37
674.41	3780.55
674.60	3856.33
674.78	3764.17
674.97	4026.31
675.16	3868.61
675.34	3805.13
675.53	4059.07
675.72	4130.75
675.90	4005.83
676.09	3807.17
676.28	3938.24
676.46	3923.91
676.65	3946.44
676.84	3936.20
677.02	3864.52
677.21	3944.39
677.40	3934.15
677.58	4020.16
677.77	3940.29
677.95	3923.91
678.14	3909.57
678.33	3729.35
678.51	3950.53
678.70	3878.85
678.89	3858.37
679.07	3870.66
679.26	3796.93
679.45	4044.74
679.63	4042.69
679.82	4009.92
680.01	3909.57
680.19	3932.10
680.38	3925.96
680.56	3895.24
680.75	3962.82
680.94	3907.52
681.12	3848.13
681.31	3815.37
681.50	3790.79
681.68	3856.33
681.87	3946.44
682.05	3860.42
682.24	4020.16
682.43	3880.90
682.61	3942.34
682.80	3932.10
682.98	3848.13
683.17	4038.59
683.36	3964.87
683.54	3878.85
683.73	4020.16
683.91	4044.74
684.10	3973.06
684.29	3952.58
684.47	3913.67
684.66	3973.06
684.84	3882.95
685.03	3772.36
685.22	3870.66
685.40	3850.18
685.59	3944.39
685.77	4124.61
685.96	4067.27
686.15	3848.13
686.33	3821.51
686.52	4050.88
686.70	3975.11
686.89	3805.13
687.07	3921.86
687.26	3899.33
687.45	3829.70
687.63	3831.75
687.82	3909.57
688.00	3964.87
688.19	3790.79
688.37	3825.61
688.56	3809.22
688.75	4009.92
688.93	3911.62
689.12	3891.14
689.30	4038.59
689.49	3852.23
689.67	3753.93
689.86	3887.04
690.04	3790.79
690.23	3854.28
690.42	3885.00
690.60	4059.07
690.79	3897.28
690.97	4007.87
691.16	3708.87
691.34	4048.83
691.53	3764.17
691.71	3901.38
691.90	3991.49
692.08	3790.79
692.27	3954.63
692.45	3815.37
692.64	3891.14
692.83	4014.02
693.01	3815.37
693.20	3966.92
693.38	3856.33
693.57	4110.27
693.75	3749.83
693.94	3755.97
694.12	3934.15
694.31	3774.41
694.49	3854.28
694.68	3749.83
694.86	3907.52
695.05	3815.37
695.23	3704.78
695.42	3911.62
695.60	3887.04
695.79	3882.95
695.97	3846.09
696.16	3864.52
696.34	3745.73
696.53	3784.65
696.71	3780.55
696.90	3897.28
697.08	3780.55
697.27	3985.35
697.45	3753.93
697.64	3909.57
697.82	3794.89
698.01	3735.50
698.19	4048.83
698.38	3833.80
698.56	3960.77
698.75	3907.52
698.93	3862.47
699.12	3885.00
699.30	3733.45
699.49	3880.90
699.67	3803.08
699.86	3710.92
700.04	3901.38
700.22	3837.89
700.41	3817.41
700.59	3901.38
700.78	3915.72
700.96	3786.69
701.15	3723.21
701.33	3891.14
701.52	3647.43
701.70	3921.86
701.89	3864.52
702.07	3829.70
702.26	3844.04
702.44	3827.65
702.62	3809.22
702.81	3678.15
702.99	3874.76
703.18	3798.98
703.36	3809.22
703.55	3837.89
703.73	3925.96
703.92	3956.68
704.10	3762.12
704.28	3868.61
704.47	3885.00
704.65	3762.12
704.84	3708.87
705.02	3725.26
705.21	3674.06
705.39	3772.36
705.57	3846.09
705.76	3856.33
705.94	3801.03
706.13	3657.67
706.31	3706.82
706.50	3651.53
706.68	3776.45
706.86	3680.20
707.05	3694.54
707.23	3715.02
707.42	3882.95
707.60	3676.10
707.78	3790.79
707.97	3878.85
708.15	3696.58
708.34	3715.02
708.52	3651.53
708.70	3733.45
708.89	3626.95
709.07	3819.46
709.26	3602.38
709.44	3833.80
709.62	3698.63
709.81	3684.30
709.99	3758.02
710.18	3682.25
710.36	3682.25
710.54	3717.06
710.73	3614.66
710.91	3682.25
711.10	3792.84
711.28	3688.39
711.46	3604.42
711.65	3684.30
711.83	3598.28
712.01	3809.22
712.20	3569.61
712.38	3749.83
712.57	3784.65
712.75	3594.19
712.93	3631.05
713.12	3829.70
713.30	3629.00
713.48	3540.94
713.67	3520.46
713.85	3577.80
714.03	3743.69
714.22	3774.41
714.40	3489.74
714.58	3495.88
714.77	3653.58
714.95	3502.03
715.14	3497.93
715.32	3594.19
715.50	3649.48
715.69	3620.81
715.87	3596.23
716.05	3614.66
716.24	3512.27
716.42	3481.55
716.60	3604.42
716.79	3608.52
716.97	3651.53
717.15	3495.88
717.34	3540.94
717.52	3585.99
717.70	3624.90
717.89	3569.61
718.07	3475.40
718.25	3555.27
718.44	3618.76
718.62	3411.92
718.80	3542.99
718.98	3567.56
719.17	3536.84
719.35	3547.08
719.53	3497.93
719.72	3514.31
719.90	3495.88
720.08	3479.50
720.27	3448.78
720.45	3669.96
720.63	3418.06
720.82	3600.33
721.00	3499.98
721.18	3295.18
721.36	3479.50
721.55	3528.65
721.73	3477.45
721.91	3538.89
722.10	3504.07
722.28	3338.19
722.46	3377.10
722.64	3411.92
722.83	3475.40
723.01	3370.96
723.19	3389.39
723.38	3354.57
723.56	3471.31
723.74	3342.28
723.92	3422.16
724.11	3422.16
724.29	3346.38
724.47	3401.68
724.65	3413.96
724.84	3321.81
725.02	3534.79
725.20	3491.79
725.39	3479.50
725.57	3526.60
725.75	3581.90
725.93	3547.08
726.12	3454.92
726.30	3358.67
726.48	3428.30
726.66	3358.67
726.85	3297.23
727.03	3401.68
727.21	3360.72
727.39	3385.29
727.58	3379.15
727.76	3260.37
727.94	3469.26
728.12	3235.79
728.30	3282.89
728.49	3520.46
728.67	3309.52
728.85	3334.09
729.03	3334.09
729.22	3444.68
729.40	3274.70
729.58	3346.38
729.76	3266.51
729.95	3293.13
730.13	3307.47
730.31	3291.09
730.49	3399.63
730.67	3233.74
730.86	3262.41
731.04	3209.17
731.22	3237.84
731.40	3227.60
731.58	3381.20
731.77	3411.92
731.95	3241.93
732.13	3241.93
732.31	3219.41
732.50	3336.14
732.68	3241.93
732.86	3270.61
733.04	3164.11
733.22	3145.68
733.40	3127.25
733.59	3203.02
733.77	3198.93
733.95	3313.61
734.13	3223.50
734.31	3280.85
734.50	3184.59
734.68	3237.84
734.86	3229.65
735.04	3155.92
735.22	3155.92
735.41	3233.74
735.59	3063.76
735.77	3182.54
735.95	3096.53
736.13	3098.58
736.31	3172.30
736.50	3172.30
736.68	3319.76
736.86	3139.54
737.04	2942.93
737.22	3192.78
737.40	3209.17
737.59	3096.53
737.77	3223.50
737.95	3110.86
738.13	3086.29
738.31	3203.02
738.49	3086.29
738.67	3041.23
738.86	3139.54
739.04	3157.97
739.22	3125.20
739.40	3039.19
739.58	3135.44
739.76	3014.61
739.94	3106.77
740.13	3346.38
740.31	3069.91
740.49	3139.54
740.67	3065.81
740.85	3102.67
741.03	2990.03
741.21	3155.92
741.39	3045.33
741.58	3047.38
741.76	3213.26
741.94	3026.90
742.12	2947.03
742.30	3000.27
742.48	3147.73
742.66	3137.49
742.84	3012.56
743.03	2916.31
743.21	3098.58
743.39	3028.95
743.57	2987.99
743.75	3024.85
743.93	2975.70
744.11	3071.95
744.29	3110.86
744.47	3071.95
744.65	3076.05
744.84	2944.98
745.02	2979.79
745.20	2897.88
745.38	2957.27
745.56	3014.61
745.74	2908.12
745.92	2887.64
746.10	2965.46
746.28	2848.72
746.46	3041.23
746.64	2832.34
746.82	3020.75
747.01	2818.00
747.19	2871.25
747.37	2861.01
747.55	2987.99
747.73	3035.09
747.91	2858.96
748.09	2875.35
748.27	2869.20
748.45	2926.55
748.63	2789.33
748.81	2686.94
748.99	2932.69
749.17	2971.60
749.35	2940.88
749.53	2889.68
749.72	2904.02
749.90	2844.63
750.08	2916.31
750.26	2766.81
750.44	2871.25
750.62	3084.24
750.80	2830.29
750.98	2764.76
751.16	2799.57
751.34	2840.53
751.52	2934.74
751.70	2725.85
751.88	2863.06
752.06	2820.05
752.24	2709.46
752.42	2932.69
752.60	2824.15
752.78	2795.48
752.96	2738.13
753.14	2826.20
753.32	2826.20
753.50	2863.06
753.68	2893.78
753.86	2883.54
754.04	2725.85
754.22	2914.26
754.40	2899.92
754.58	2717.65
754.76	2809.81
754.94	2680.79
755.12	2844.63
755.30	2738.13
755.48	2779.09
755.66	2842.58
755.84	2674.65
756.02	2881.49
756.20	2729.94
756.38	2879.44
756.56	2871.25
756.74	2609.11
756.92	2971.60
757.10	2734.04
757.28	2785.24
757.46	2803.67
757.64	2832.34
757.82	2770.90
758.00	2863.06
758.18	2693.08
758.36	2721.75
758.54	2899.92
758.72	2779.09
758.90	2791.38
759.08	2752.47
759.26	2815.96
759.44	2750.42
759.62	2879.44
759.80	2678.74
759.98	2715.61
760.16	2828.24
760.34	2799.57
760.52	2889.68
760.70	2840.53
760.88	2760.66
761.06	2674.65
761.24	2791.38
761.42	2705.37
761.60	2824.15
761.77	2654.17
761.95	2652.12
762.13	2897.88
762.31	2801.62
762.49	2910.16
762.67	2777.05
762.85	2670.55
763.03	2654.17
763.21	2586.58
763.39	2723.80
763.57	2824.15
763.75	2678.74
763.93	2729.94
764.11	2627.54
764.29	2717.65
764.46	2727.89
764.64	2715.61
764.82	2607.06
765.00	2623.45
765.18	2834.39
765.36	2695.13
765.54	2723.80
765.72	2645.98
765.90	2664.41
766.08	2717.65
766.26	2709.46
766.44	2701.27
766.61	2568.15
766.79	2695.13
766.97	2723.80
767.15	2729.94
767.33	2652.12
767.51	2652.12
767.69	2688.98
767.87	2648.02
768.05	2666.46
768.22	2729.94
768.40	2791.38
768.58	2701.27
768.76	2529.24
768.94	2723.80
769.12	2633.69
769.30	2584.54
769.48	2645.98
769.66	2598.87
769.83	2543.58
770.01	2564.06
770.19	2588.63
770.37	2635.74
770.55	2516.95
770.73	2611.16
770.91	2553.82
771.09	2562.01
771.26	2449.37
771.44	2621.40
771.62	2559.96
771.80	2621.40
771.98	2617.30
772.16	2531.29
772.34	2504.67
772.51	2416.60
772.69	2639.83
772.87	2713.56
773.05	2537.43
773.23	2523.10
773.41	2516.95
773.58	2621.40
773.76	2547.67
773.94	2576.34
774.12	2711.51
774.30	2562.01
774.48	2521.05
774.65	2420.70
774.83	2510.81
775.01	2437.08
775.19	2500.57
775.37	2549.72
775.55	2426.84
775.72	2555.86
775.90	2486.23
776.08	2492.38
776.26	2656.22
776.44	2594.78
776.61	2430.94
776.79	2547.67
776.97	2451.42
777.15	2416.60
777.33	2338.78
777.51	2406.36
777.68	2353.12
777.86	2562.01
778.04	2449.37
778.22	2381.79
778.40	2519.00
778.57	2389.98
778.75	2424.80
778.93	2373.60
779.11	2449.37
779.29	2576.34
779.46	2439.13
779.64	2373.60
779.82	2475.99
780.00	2373.60
780.17	2455.51
780.35	2324.44
780.53	2437.08
780.71	2404.32
780.89	2426.84
781.06	2330.59
781.24	2377.69
781.42	2426.84
781.60	2533.34
781.77	2381.79
781.95	2510.81
782.13	2373.60
782.31	2467.80
782.48	2525.15
782.66	2332.64
782.84	2496.47
783.02	2449.37
783.19	2410.46
783.37	2443.23
783.55	2373.60
783.73	2412.51
783.90	2394.08
784.08	2584.54
784.26	2412.51
784.44	2355.16
784.61	2435.03
784.79	2363.36
784.97	2346.97
785.15	2525.15
785.32	2265.05
785.50	2332.64
785.68	2426.84
785.86	2385.88
786.03	2355.16
786.21	2398.17
786.39	2414.56
786.57	2310.11
786.74	2271.20
786.92	2346.97
787.10	2412.51
787.27	2273.25
787.45	2435.03
787.63	2422.75
787.81	2398.17
787.98	2295.77
788.16	2279.39
788.34	2445.27
788.51	2363.36
788.69	2285.53
788.87	2330.59
789.04	2572.25
789.22	2529.24
789.40	2230.24
789.58	2299.87
789.75	2353.12
789.93	2346.97
790.11	2410.46
790.28	2297.82
790.46	2521.05
790.64	2387.93
790.81	2303.96
790.99	2410.46
791.17	2279.39
791.34	2351.07
791.52	2222.05
791.70	2336.73
791.87	2412.51
792.05	2332.64
792.23	2336.73
792.40	2291.68
792.58	2234.33
792.76	2365.40
792.93	2359.26
793.11	2283.49
793.29	2324.44
793.46	2322.40
793.64	2330.59
793.82	2406.36
793.99	2176.99
794.17	2172.89
794.35	2195.42
794.52	2303.96
794.70	2308.06
794.88	2424.80
795.05	2224.09
795.23	2152.42
795.41	2299.87
795.58	2148.32
795.76	2207.71
795.94	2174.94
796.11	2203.61
796.29	2291.68
796.46	2523.10
796.64	2232.29
796.82	2271.20
796.99	2248.67
797.17	2236.38
797.35	2346.97
797.52	2387.93
797.70	2330.59
797.87	2220.00
798.05	2426.84
798.23	2185.18
798.40	2332.64
798.58	2271.20
798.76	2250.72
798.93	2389.98
799.11	2320.35
799.28	2232.29
799.46	2209.76
799.64	2250.72
799.81	2234.33
799.99	2283.49
800.16	2271.20
800.34	2220.00
800.52	2187.23
800.69	2209.76
800.87	2172.89
801.04	2263.01
801.22	2183.13
801.39	2242.53
801.57	2158.56
801.75	2131.94
801.92	2246.62
802.10	2095.07
802.27	2197.47
802.45	2238.43
802.63	2324.44
802.80	2365.40
802.98	2168.80
803.15	2181.09
803.33	2119.65
803.50	2209.76
803.68	2213.85
803.86	2265.05
804.03	2267.10
804.21	2338.78
804.38	2330.59
804.56	2527.19
804.73	2346.97
804.91	2166.75
805.08	2158.56
805.26	2170.85
805.44	2242.53
805.61	2299.87
805.79	2226.14
805.96	2244.57
806.14	2228.19
806.31	2220.00
806.49	2164.70
806.66	2303.96
806.84	2168.80
807.01	2236.38
807.19	2195.42
807.36	2183.13
807.54	2258.91
807.71	2076.64
807.89	2258.91
808.07	2142.18
808.24	2199.52
808.42	2275.29
808.59	2242.53
808.77	2170.85
808.94	2217.95
809.12	2252.77
809.29	2228.19
809.47	2189.28
809.64	2203.61
809.82	2189.28
809.99	2117.60
810.17	2361.31
810.34	2209.76
810.52	2133.98
810.69	2207.71
810.87	2236.38
811.04	2111.46
811.22	2232.29
811.39	2093.02
811.57	2195.42
811.74	2222.05
811.92	2148.32
812.09	2342.88
812.27	2291.68
812.44	2125.79
812.62	2240.48
812.79	2209.76
812.97	2285.53
813.14	2156.51
813.31	2097.12
813.49	2189.28
813.66	2195.42
813.84	2205.66
814.01	2217.95
814.19	2269.15
814.36	2242.53
814.54	2234.33
814.71	2205.66
814.89	2205.66
815.06	2293.72
815.24	2191.33
815.41	2201.57
815.58	2191.33
815.76	2295.77
815.93	2285.53
816.11	2291.68
816.28	2023.39
816.46	2195.42
816.63	2162.66
816.81	2117.60
816.98	2189.28
817.15	2138.08
817.33	2285.53
817.50	2156.51
817.68	2084.83
817.85	2332.64
818.03	2004.96
818.20	2133.98
818.37	2199.52
818.55	2109.41
818.72	2150.37
818.90	2156.51
819.07	2090.98
819.25	2248.67
819.42	2258.91
819.59	2050.02
819.77	2064.35
819.94	2158.56
820.12	2256.86
820.29	2236.38
820.46	2140.13
820.64	2154.46
820.81	2052.06
820.99	2166.75
821.16	2109.41
821.33	2099.17
821.51	2275.29
821.68	2013.15
821.86	2346.97
822.03	2207.71
822.20	2265.05
822.38	2111.46
822.55	2136.03
822.73	2125.79
822.90	2230.24
823.07	1996.77
823.25	2201.57
823.42	2060.26
823.59	2121.70
823.77	2111.46
823.94	2185.18
824.12	2156.51
824.29	2119.65
824.46	2031.58
824.64	2093.02
824.81	2127.84
824.98	2099.17
825.16	2154.46
825.33	2037.73
825.50	2070.50
825.68	2226.14
825.85	2133.98
826.03	2138.08
826.20	2058.21
826.37	2154.46
826.55	2031.58
826.72	2013.15
826.89	2113.50
827.07	2187.23
827.24	1961.95
827.41	2136.03
827.59	2037.73
827.76	2105.31
827.93	2113.50
828.11	2176.99
828.28	2101.22
828.45	2230.24
828.63	2068.45
828.80	2050.02
828.97	2097.12
829.15	2170.85
829.32	1978.34
829.49	2103.26
829.67	1998.82
829.84	2105.31
830.01	1939.43
830.18	2066.40
830.36	2105.31
830.53	2037.73
830.70	2007.01
830.88	2052.06
831.05	2086.88
831.22	2224.09
831.40	1986.53
831.57	2039.78
831.74	2232.29
831.91	2078.69
832.09	2080.74
832.26	2033.63
832.43	2183.13
832.61	2017.25
832.78	2009.06
832.95	2027.49
833.13	2093.02
833.30	2047.97
833.47	2115.55
833.64	2017.25
833.82	2121.70
833.99	1964.00
834.16	2011.11
834.33	1961.95
834.51	2041.82
834.68	2230.24
834.85	2000.87
835.03	2027.49
835.20	1865.70
835.37	2041.82
835.54	1935.33
835.72	2099.17
835.89	2009.06
836.06	2129.89
836.23	1988.58
836.41	1945.57
836.58	1947.62
836.75	2082.78
836.92	1931.23
837.10	1931.23
837.27	2011.11
837.44	2052.06
837.61	1851.36
837.78	2062.30
837.96	1957.86
838.13	1972.19
838.30	1970.15
838.47	1992.67
838.65	1861.60
838.82	1939.43
838.99	2029.54
839.16	1900.52
839.34	2000.87
839.51	1920.99
839.68	1964.00
839.85	2011.11
840.02	1912.80
840.20	1824.74
840.37	1955.81
840.54	1824.74
840.71	2172.89
840.88	1935.33
841.06	2009.06
841.23	2041.82
841.40	1976.29
841.57	1951.71
841.74	1763.30
841.92	1949.67
842.09	1892.32
842.26	1959.91
842.43	1873.89
842.60	1808.36
842.78	1837.03
842.95	1832.93
843.12	1957.86
843.29	1914.85
843.46	1974.24
843.64	1906.66
843.81	1898.47
843.98	2027.49
844.15	2115.55
844.32	1779.68
844.49	1820.64
844.67	2027.49
844.84	1984.48
845.01	2007.01
845.18	1830.88
845.35	1886.18
845.52	1822.69
845.70	1939.43
845.87	1939.43
846.04	2019.30
846.21	1794.02
846.38	1968.10
846.55	1816.55
846.72	1837.03
846.90	1933.28
847.07	1873.89
847.24	1951.71
847.41	1871.84
847.58	1802.21
847.75	1900.52
847.92	1843.17
848.10	1832.93
848.27	1738.73
848.44	1929.19
848.61	1824.74
848.78	1955.81
848.95	1724.39
849.12	1834.98
849.29	1804.26
849.47	1914.85
849.64	1779.68
849.81	1832.93
849.98	1972.19
850.15	1894.37
850.32	1888.23
850.49	1826.79
850.66	1726.44
850.84	1791.97
851.01	1832.93
851.18	1841.12
851.35	1757.16
851.52	1814.50
851.69	1873.89
851.86	1857.51
852.03	1740.77
852.20	1662.95
852.37	1798.12
852.54	1837.03
852.72	1826.79
852.89	1945.57
853.06	1744.87
853.23	1800.16
853.40	1787.88
853.57	1677.29
853.74	1925.09
853.91	1697.77
854.08	1742.82
854.25	1640.42
854.42	1859.56
854.59	1896.42
854.76	1681.38
854.94	1740.77
855.11	1753.06
855.28	1673.19
855.45	1837.03
855.62	1667.05
855.79	1798.12
855.96	1800.16
856.13	1636.33
856.30	1728.49
856.47	1767.40
856.64	1775.59
856.81	1726.44
856.98	1701.86
857.15	1746.92
857.32	1636.33
857.49	1681.38
857.66	1691.62
857.83	1689.57
858.00	1726.44
858.17	1796.07
858.35	1705.96
858.52	1808.36
858.69	1603.56
858.86	1662.95
859.03	1712.10
859.20	1744.87
859.37	1634.28
859.54	1783.78
859.71	1791.97
859.88	1677.29
860.05	1652.71
860.22	1652.71
860.39	1742.82
860.56	1597.42
860.73	1681.38
860.90	1677.29
861.07	1630.18
861.24	1701.86
861.41	1699.81
861.58	1601.51
861.75	1708.01
861.92	1779.68
862.09	1601.51
862.26	1730.53
862.43	1681.38
862.60	1722.34
862.77	1675.24
862.94	1562.60
863.11	1767.40
863.28	1687.53
863.45	1718.25
863.62	1609.70
863.79	1638.38
863.96	1726.44
864.13	1746.92
864.30	1589.22
864.46	1578.98
864.63	1656.81
864.80	1654.76
864.97	1806.31
865.14	1521.64
865.31	1613.80
865.48	1697.77
865.65	1656.81
865.82	1619.94
865.99	1644.52
866.16	1667.05
866.33	1628.14
866.50	1632.23
866.67	1771.49
866.84	1568.74
867.01	1646.57
867.18	1705.96
867.35	1771.49
867.52	1767.40
867.69	1642.47
867.85	1568.74
868.02	1679.33
868.19	1601.51
868.36	1538.02
868.53	1626.09
868.70	1624.04
868.87	1673.19
869.04	1566.70
869.21	1607.66
869.38	1585.13
869.55	1783.78
869.72	1607.66
869.89	1578.98
870.05	1544.17
870.22	1566.70
870.39	1538.02
870.56	1724.39
870.73	1546.22
870.90	1732.58
871.07	1556.46
871.24	1681.38
871.41	1615.85
871.58	1552.36
871.74	1513.45
871.91	1546.22
872.08	1570.79
872.25	1542.12
872.42	1456.11
872.59	1480.68
872.76	1621.99
872.93	1787.88
873.10	1605.61
873.26	1576.94
873.43	1576.94
873.60	1671.14
873.77	1433.58
873.94	1554.41
874.11	1730.53
874.28	1738.73
874.45	1630.18
874.61	1511.40
874.78	1630.18
874.95	1558.50
875.12	1607.66
875.29	1556.46
875.46	1525.74
875.63	1722.34
875.79	1568.74
875.96	1529.83
876.13	1486.83
876.30	1517.54
876.47	1476.59
876.64	1501.16
876.80	1624.04
876.97	1634.28
877.14	1529.83
877.31	1624.04
877.48	1613.80
877.65	1535.98
877.81	1490.92
877.98	1501.16
878.15	1626.09
878.32	1497.07
878.49	1650.66
878.66	1613.80
878.82	1621.99
878.99	1640.42
879.16	1484.78
879.33	1570.79
879.50	1560.55
879.67	1591.27
879.83	1525.74
880.00	1486.83
880.17	1517.54
880.34	1550.31
880.51	1458.15
880.67	1531.88
880.84	1636.33
881.01	1634.28
881.18	1572.84
881.35	1497.07
881.51	1482.73
881.68	1634.28
881.85	1589.22
882.02	1531.88
882.18	1527.78
882.35	1558.50
882.52	1425.39
882.69	1617.90
882.86	1624.04
883.02	1560.55
883.19	1542.12
883.36	1533.93
883.53	1443.82
883.69	1449.96
883.86	1409.00
884.03	1544.17
884.20	1531.88
884.36	1587.18
884.53	1542.12
884.70	1492.97
884.87	1454.06
885.04	1560.55
885.20	1605.61
885.37	1501.16
885.54	1486.83
885.71	1558.50
885.87	1505.26
886.04	1380.33
886.21	1460.20
886.38	1546.22
886.54	1513.45
886.71	1472.49
886.88	1656.81
>>>>>End Processed Spectral Data<<<<<
