SpectraSuite Data File
++++++++++++++++++++++++++++++++++++
Date: Fri May 01 10:34:04 EST 2015
User: ocean
Dark Spectrum Present: No
Reference Spectrum Present: No
Number of Sampled Component Spectra: 1
Spectrometers: USB4E02642
Integration Time (usec): 150000 (USB4E02642)
Spectra Averaged: 1 (USB4E02642)
Boxcar Smoothing: 0 (USB4E02642)
Correct for Electrical Dark: No (USB4E02642)
Strobe/Lamp Enabled: No (USB4E02642)
Correct for Detector Non-linearity: No (USB4E02642)
Correct for Stray Light: No (USB4E02642)
Number of Pixels in Processed Spectrum: 3648
>>>>>Begin Processed Spectral Data<<<<<
179.22	980.98
179.43	980.98
179.65	980.98
179.86	1066.99
180.08	1021.94
180.29	1329.13
180.51	1267.69
180.72	1284.08
180.94	1292.27
181.15	1236.97
181.37	1339.37
181.58	1191.92
181.80	1331.18
182.01	1251.31
182.23	1314.80
182.44	1300.46
182.66	1265.64
182.87	1329.13
183.09	1224.69
183.30	1284.08
183.52	1343.47
183.73	1333.23
183.95	1322.99
184.16	1261.55
184.38	1402.86
184.59	1284.08
184.81	1286.12
185.02	1355.76
185.24	1273.84
185.45	1279.98
185.67	1331.18
185.88	1302.51
186.10	1222.64
186.31	1196.01
186.53	1288.17
186.74	1239.02
186.96	1341.42
187.17	1279.98
187.39	1310.70
187.60	1261.55
187.81	1447.91
188.03	1435.63
188.24	1341.42
188.46	1312.75
188.67	1357.80
188.89	1232.88
189.10	1431.53
189.32	1353.71
189.53	1394.67
189.75	1325.04
189.96	1429.48
190.18	1269.74
190.39	1290.22
190.61	1318.89
190.82	1265.64
191.04	1406.95
191.25	1486.83
191.46	1382.38
191.68	1306.60
191.89	1273.84
192.11	1347.56
192.32	1284.08
192.54	1271.79
192.75	1247.21
192.97	1275.88
193.18	1325.04
193.40	1341.42
193.61	1355.76
193.83	1351.66
194.04	1361.90
194.25	1355.76
194.47	1298.41
194.68	1353.71
194.90	1314.80
195.11	1347.56
195.33	1269.74
195.54	1415.15
195.76	1384.43
195.97	1265.64
196.18	1345.52
196.40	1431.53
196.61	1269.74
196.83	1349.61
197.04	1349.61
197.26	1474.54
197.47	1390.57
197.69	1249.26
197.90	1325.04
198.11	1292.27
198.33	1286.12
198.54	1220.59
198.76	1427.43
198.97	1331.18
199.19	1284.08
199.40	1318.89
199.61	1273.84
199.83	1241.07
200.04	1349.61
200.26	1380.33
200.47	1298.41
200.69	1327.08
200.90	1398.76
201.11	1224.69
201.33	1284.08
201.54	1425.39
201.76	1425.39
201.97	1296.36
202.19	1374.19
202.40	1396.71
202.61	1296.36
202.83	1339.37
203.04	1343.47
203.26	1368.04
203.47	1292.27
203.68	1423.34
203.90	1259.50
204.11	1337.32
204.33	1255.40
204.54	1415.15
204.75	1312.75
204.97	1269.74
205.18	1267.69
205.40	1282.03
205.61	1294.32
205.83	1517.54
206.04	1325.04
206.25	1363.95
206.47	1437.67
206.68	1398.76
206.90	1279.98
207.11	1271.79
207.32	1181.68
207.54	1314.80
207.75	1314.80
207.97	1361.90
208.18	1267.69
208.39	1378.28
208.61	1316.84
208.82	1411.05
209.03	1394.67
209.25	1490.92
209.46	1316.84
209.68	1300.46
209.89	1275.88
210.10	1286.12
210.32	1298.41
210.53	1298.41
210.75	1378.28
210.96	1267.69
211.17	1329.13
211.39	1267.69
211.60	1263.60
211.82	1279.98
212.03	1325.04
212.24	1322.99
212.46	1255.40
212.67	1390.57
212.88	1243.12
213.10	1318.89
213.31	1296.36
213.53	1380.33
213.74	1333.23
213.95	1363.95
214.17	1353.71
214.38	1394.67
214.59	1390.57
214.81	1433.58
215.02	1361.90
215.23	1310.70
215.45	1210.35
215.66	1329.13
215.88	1353.71
216.09	1214.45
216.30	1247.21
216.52	1316.84
216.73	1228.78
216.94	1335.28
217.16	1394.67
217.37	1341.42
217.58	1306.60
217.80	1468.39
218.01	1267.69
218.22	1445.87
218.44	1220.59
218.65	1368.04
218.87	1290.22
219.08	1388.52
219.29	1376.24
219.51	1415.15
219.72	1304.56
219.93	1390.57
220.15	1366.00
220.36	1243.12
220.57	1370.09
220.79	1218.54
221.00	1296.36
221.21	1398.76
221.43	1445.87
221.64	1275.88
221.85	1327.08
222.07	1296.36
222.28	1341.42
222.49	1243.12
222.71	1247.21
222.92	1236.97
223.13	1173.49
223.35	1222.64
223.56	1376.24
223.77	1245.16
223.99	1314.80
224.20	1353.71
224.41	1265.64
224.63	1460.20
224.84	1249.26
225.05	1413.10
225.27	1419.24
225.48	1431.53
225.69	1288.17
225.91	1292.27
226.12	1214.45
226.33	1517.54
226.55	1290.22
226.76	1251.31
226.97	1249.26
227.19	1361.90
227.40	1337.32
227.61	1286.12
227.82	1413.10
228.04	1220.59
228.25	1177.58
228.46	1312.75
228.68	1316.84
228.89	1413.10
229.10	1298.41
229.32	1306.60
229.53	1322.99
229.74	1296.36
229.96	1357.80
230.17	1322.99
230.38	1486.83
230.59	1337.32
230.81	1282.03
231.02	1288.17
231.23	1200.11
231.45	1351.66
231.66	1316.84
231.87	1341.42
232.09	1337.32
232.30	1210.35
232.51	1314.80
232.72	1267.69
232.94	1202.16
233.15	1372.14
233.36	1191.92
233.58	1259.50
233.79	1294.32
234.00	1347.56
234.21	1390.57
234.43	1349.61
234.64	1312.75
234.85	1298.41
235.07	1292.27
235.28	1380.33
235.49	1296.36
235.70	1421.29
235.92	1382.38
236.13	1288.17
236.34	1374.19
236.56	1130.48
236.77	1226.73
236.98	1331.18
237.19	1374.19
237.41	1329.13
237.62	1351.66
237.83	1413.10
238.04	1411.05
238.26	1411.05
238.47	1363.95
238.68	1355.76
238.89	1327.08
239.11	1386.47
239.32	1316.84
239.53	1355.76
239.75	1234.93
239.96	1269.74
240.17	1239.02
240.38	1347.56
240.60	1284.08
240.81	1347.56
241.02	1394.67
241.23	1200.11
241.45	1402.86
241.66	1206.25
241.87	1331.18
242.08	1445.87
242.30	1273.84
242.51	1331.18
242.72	1245.16
242.93	1263.60
243.15	1382.38
243.36	1406.95
243.57	1300.46
243.78	1372.14
244.00	1396.71
244.21	1232.88
244.42	1368.04
244.63	1413.10
244.85	1265.64
245.06	1200.11
245.27	1359.85
245.48	1312.75
245.70	1292.27
245.91	1406.95
246.12	1269.74
246.33	1380.33
246.54	1415.15
246.76	1296.36
246.97	1386.47
247.18	1234.93
247.39	1376.24
247.61	1456.11
247.82	1341.42
248.03	1353.71
248.24	1298.41
248.45	1327.08
248.67	1308.65
248.88	1300.46
249.09	1290.22
249.30	1355.76
249.52	1353.71
249.73	1404.91
249.94	1322.99
250.15	1308.65
250.36	1384.43
250.58	1511.40
250.79	1388.52
251.00	1339.37
251.21	1374.19
251.43	1263.60
251.64	1458.15
251.85	1322.99
252.06	1267.69
252.27	1421.29
252.49	1398.76
252.70	1325.04
252.91	1308.65
253.12	1284.08
253.33	1363.95
253.55	1355.76
253.76	1261.55
253.97	1263.60
254.18	1224.69
254.39	1372.14
254.61	1247.21
254.82	1402.86
255.03	1351.66
255.24	1302.51
255.45	1318.89
255.67	1327.08
255.88	1341.42
256.09	1257.45
256.30	1273.84
256.51	1445.87
256.73	1433.58
256.94	1224.69
257.15	1380.33
257.36	1259.50
257.57	1427.43
257.78	1292.27
258.00	1366.00
258.21	1380.33
258.42	1382.38
258.63	1257.45
258.84	1183.73
259.06	1282.03
259.27	1376.24
259.48	1322.99
259.69	1370.09
259.90	1181.68
260.11	1447.91
260.33	1294.32
260.54	1372.14
260.75	1363.95
260.96	1257.45
261.17	1366.00
261.38	1411.05
261.60	1423.34
261.81	1308.65
262.02	1359.85
262.23	1275.88
262.44	1331.18
262.65	1259.50
262.87	1286.12
263.08	1372.14
263.29	1366.00
263.50	1374.19
263.71	1257.45
263.92	1320.94
264.13	1337.32
264.35	1368.04
264.56	1329.13
264.77	1357.80
264.98	1263.60
265.19	1191.92
265.40	1275.88
265.62	1411.05
265.83	1343.47
266.04	1368.04
266.25	1335.28
266.46	1363.95
266.67	1355.76
266.88	1462.25
267.10	1306.60
267.31	1347.56
267.52	1255.40
267.73	1222.64
267.94	1294.32
268.15	1279.98
268.36	1243.12
268.57	1392.62
268.79	1294.32
269.00	1337.32
269.21	1243.12
269.42	1363.95
269.63	1259.50
269.84	1316.84
270.05	1232.88
270.27	1261.55
270.48	1300.46
270.69	1275.88
270.90	1251.31
271.11	1402.86
271.32	1329.13
271.53	1288.17
271.74	1267.69
271.96	1296.36
272.17	1320.94
272.38	1284.08
272.59	1218.54
272.80	1333.23
273.01	1384.43
273.22	1259.50
273.43	1271.79
273.64	1255.40
273.86	1419.24
274.07	1325.04
274.28	1316.84
274.49	1396.71
274.70	1267.69
274.91	1290.22
275.12	1372.14
275.33	1183.73
275.54	1343.47
275.76	1243.12
275.97	1331.18
276.18	1300.46
276.39	1300.46
276.60	1298.41
276.81	1400.81
277.02	1261.55
277.23	1337.32
277.44	1357.80
277.65	1335.28
277.86	1357.80
278.08	1433.58
278.29	1384.43
278.50	1380.33
278.71	1329.13
278.92	1331.18
279.13	1239.02
279.34	1288.17
279.55	1288.17
279.76	1411.05
279.97	1259.50
280.18	1474.54
280.40	1409.00
280.61	1251.31
280.82	1271.79
281.03	1257.45
281.24	1437.67
281.45	1316.84
281.66	1300.46
281.87	1345.52
282.08	1294.32
282.29	1372.14
282.50	1292.27
282.71	1249.26
282.92	1470.44
283.13	1419.24
283.35	1325.04
283.56	1296.36
283.77	1251.31
283.98	1298.41
284.19	1382.38
284.40	1300.46
284.61	1304.56
284.82	1380.33
285.03	1462.25
285.24	1320.94
285.45	1310.70
285.66	1411.05
285.87	1282.03
286.08	1200.11
286.29	1398.76
286.50	1382.38
286.71	1339.37
286.93	1380.33
287.14	1341.42
287.35	1366.00
287.56	1384.43
287.77	1312.75
287.98	1290.22
288.19	1370.09
288.40	1337.32
288.61	1214.45
288.82	1394.67
289.03	1378.28
289.24	1374.19
289.45	1474.54
289.66	1290.22
289.87	1454.06
290.08	1288.17
290.29	1318.89
290.50	1284.08
290.71	1284.08
290.92	1388.52
291.13	1357.80
291.34	1349.61
291.55	1337.32
291.76	1212.40
291.97	1275.88
292.18	1239.02
292.39	1310.70
292.61	1370.09
292.82	1224.69
293.03	1431.53
293.24	1249.26
293.45	1204.21
293.66	1306.60
293.87	1306.60
294.08	1337.32
294.29	1255.40
294.50	1431.53
294.71	1472.49
294.92	1366.00
295.13	1384.43
295.34	1282.03
295.55	1273.84
295.76	1292.27
295.97	1306.60
296.18	1372.14
296.39	1296.36
296.60	1380.33
296.81	1282.03
297.02	1204.21
297.23	1386.47
297.44	1298.41
297.65	1331.18
297.86	1361.90
298.07	1230.83
298.28	1267.69
298.49	1247.21
298.70	1292.27
298.91	1409.00
299.12	1216.49
299.33	1239.02
299.54	1359.85
299.75	1259.50
299.96	1273.84
300.17	1406.95
300.38	1275.88
300.59	1300.46
300.80	1329.13
301.01	1263.60
301.22	1243.12
301.43	1347.56
301.64	1259.50
301.85	1206.25
302.06	1339.37
302.27	1214.45
302.48	1503.21
302.69	1251.31
302.89	1279.98
303.10	1359.85
303.31	1200.11
303.52	1302.51
303.73	1325.04
303.94	1347.56
304.15	1318.89
304.36	1245.16
304.57	1243.12
304.78	1288.17
304.99	1243.12
305.20	1275.88
305.41	1359.85
305.62	1439.72
305.83	1310.70
306.04	1269.74
306.25	1257.45
306.46	1353.71
306.67	1437.67
306.88	1298.41
307.09	1241.07
307.30	1300.46
307.51	1404.91
307.72	1316.84
307.93	1220.59
308.14	1284.08
308.35	1314.80
308.55	1304.56
308.76	1220.59
308.97	1288.17
309.18	1409.00
309.39	1329.13
309.60	1257.45
309.81	1425.39
310.02	1222.64
310.23	1193.97
310.44	1296.36
310.65	1337.32
310.86	1294.32
311.07	1347.56
311.28	1230.83
311.49	1255.40
311.70	1378.28
311.91	1296.36
312.11	1292.27
312.32	1353.71
312.53	1257.45
312.74	1349.61
312.95	1325.04
313.16	1454.06
313.37	1337.32
313.58	1269.74
313.79	1155.05
314.00	1284.08
314.21	1292.27
314.42	1261.55
314.63	1247.21
314.83	1294.32
315.04	1314.80
315.25	1380.33
315.46	1355.76
315.67	1421.29
315.88	1284.08
316.09	1306.60
316.30	1320.94
316.51	1402.86
316.72	1226.73
316.93	1236.97
317.13	1429.48
317.34	1228.78
317.55	1372.14
317.76	1296.36
317.97	1306.60
318.18	1296.36
318.39	1359.85
318.60	1343.47
318.81	1263.60
319.02	1366.00
319.23	1415.15
319.43	1357.80
319.64	1357.80
319.85	1337.32
320.06	1322.99
320.27	1402.86
320.48	1327.08
320.69	1327.08
320.90	1210.35
321.11	1392.62
321.31	1411.05
321.52	1308.65
321.73	1460.20
321.94	1288.17
322.15	1177.58
322.36	1447.91
322.57	1462.25
322.78	1288.17
322.98	1345.52
323.19	1355.76
323.40	1298.41
323.61	1224.69
323.82	1306.60
324.03	1228.78
324.24	1425.39
324.45	1345.52
324.65	1196.01
324.86	1415.15
325.07	1406.95
325.28	1288.17
325.49	1368.04
325.70	1335.28
325.91	1374.19
326.12	1210.35
326.32	1304.56
326.53	1304.56
326.74	1333.23
326.95	1351.66
327.16	1290.22
327.37	1357.80
327.58	1306.60
327.78	1243.12
327.99	1347.56
328.20	1284.08
328.41	1224.69
328.62	1284.08
328.83	1327.08
329.04	1241.07
329.24	1308.65
329.45	1275.88
329.66	1316.84
329.87	1374.19
330.08	1322.99
330.29	1386.47
330.49	1411.05
330.70	1193.97
330.91	1288.17
331.12	1296.36
331.33	1359.85
331.54	1341.42
331.74	1257.45
331.95	1300.46
332.16	1243.12
332.37	1279.98
332.58	1331.18
332.79	1273.84
332.99	1253.36
333.20	1337.32
333.41	1347.56
333.62	1351.66
333.83	1329.13
334.04	1243.12
334.24	1322.99
334.45	1222.64
334.66	1318.89
334.87	1198.06
335.08	1257.45
335.29	1265.64
335.49	1357.80
335.70	1339.37
335.91	1322.99
336.12	1443.82
336.33	1275.88
336.53	1236.97
336.74	1269.74
336.95	1361.90
337.16	1234.93
337.37	1286.12
337.57	1224.69
337.78	1284.08
337.99	1220.59
338.20	1241.07
338.41	1251.31
338.62	1339.37
338.82	1343.47
339.03	1277.93
339.24	1290.22
339.45	1370.09
339.65	1228.78
339.86	1308.65
340.07	1368.04
340.28	1292.27
340.49	1449.96
340.69	1314.80
340.90	1366.00
341.11	1363.95
341.32	1251.31
341.53	1226.73
341.73	1271.79
341.94	1345.52
342.15	1351.66
342.36	1409.00
342.57	1497.07
342.77	1267.69
342.98	1327.08
343.19	1290.22
343.40	1419.24
343.60	1294.32
343.81	1304.56
344.02	1325.04
344.23	1384.43
344.44	1177.58
344.64	1271.79
344.85	1300.46
345.06	1347.56
345.27	1308.65
345.47	1243.12
345.68	1363.95
345.89	1290.22
346.10	1525.74
346.30	1282.03
346.51	1329.13
346.72	1400.81
346.93	1345.52
347.13	1181.68
347.34	1392.62
347.55	1355.76
347.76	1245.16
347.97	1349.61
348.17	1322.99
348.38	1290.22
348.59	1279.98
348.80	1308.65
349.00	1331.18
349.21	1320.94
349.42	1357.80
349.63	1484.78
349.83	1212.40
350.04	1277.93
350.25	1308.65
350.45	1232.88
350.66	1341.42
350.87	1265.64
351.08	1245.16
351.28	1380.33
351.49	1296.36
351.70	1370.09
351.91	1296.36
352.11	1275.88
352.32	1271.79
352.53	1370.09
352.74	1325.04
352.94	1335.28
353.15	1284.08
353.36	1259.50
353.56	1284.08
353.77	1339.37
353.98	1372.14
354.19	1386.47
354.39	1251.31
354.60	1247.21
354.81	1368.04
355.02	1224.69
355.22	1353.71
355.43	1277.93
355.64	1241.07
355.84	1357.80
356.05	1325.04
356.26	1400.81
356.47	1279.98
356.67	1333.23
356.88	1345.52
357.09	1308.65
357.29	1306.60
357.50	1449.96
357.71	1218.54
357.92	1337.32
358.12	1378.28
358.33	1306.60
358.54	1300.46
358.74	1488.87
358.95	1366.00
359.16	1269.74
359.36	1263.60
359.57	1382.38
359.78	1366.00
359.98	1320.94
360.19	1370.09
360.40	1366.00
360.61	1349.61
360.81	1296.36
361.02	1220.59
361.23	1314.80
361.43	1327.08
361.64	1331.18
361.85	1378.28
362.05	1378.28
362.26	1251.31
362.47	1314.80
362.67	1196.01
362.88	1402.86
363.09	1300.46
363.29	1298.41
363.50	1294.32
363.71	1241.07
363.91	1329.13
364.12	1390.57
364.33	1288.17
364.53	1366.00
364.74	1220.59
364.95	1398.76
365.15	1378.28
365.36	1241.07
365.57	1331.18
365.77	1322.99
365.98	1339.37
366.19	1322.99
366.39	1230.83
366.60	1277.93
366.81	1228.78
367.01	1413.10
367.22	1273.84
367.43	1423.34
367.63	1251.31
367.84	1314.80
368.05	1292.27
368.25	1288.17
368.46	1400.81
368.67	1333.23
368.87	1298.41
369.08	1239.02
369.29	1218.54
369.49	1331.18
369.70	1341.42
369.91	1359.85
370.11	1251.31
370.32	1169.39
370.52	1302.51
370.73	1411.05
370.94	1308.65
371.14	1331.18
371.35	1296.36
371.56	1396.71
371.76	1353.71
371.97	1486.83
372.18	1198.06
372.38	1255.40
372.59	1239.02
372.79	1286.12
373.00	1247.21
373.21	1347.56
373.41	1359.85
373.62	1163.25
373.83	1302.51
374.03	1220.59
374.24	1279.98
374.44	1349.61
374.65	1374.19
374.86	1241.07
375.06	1304.56
375.27	1277.93
375.47	1337.32
375.68	1329.13
375.89	1214.45
376.09	1366.00
376.30	1302.51
376.50	1347.56
376.71	1425.39
376.92	1314.80
377.12	1300.46
377.33	1249.26
377.54	1366.00
377.74	1374.19
377.95	1447.91
378.15	1366.00
378.36	1306.60
378.57	1380.33
378.77	1382.38
378.98	1247.21
379.18	1286.12
379.39	1267.69
379.59	1212.40
379.80	1279.98
380.01	1239.02
380.21	1384.43
380.42	1331.18
380.62	1333.23
380.83	1239.02
381.04	1302.51
381.24	1349.61
381.45	1355.76
381.65	1366.00
381.86	1196.01
382.06	1423.34
382.27	1343.47
382.48	1204.21
382.68	1419.24
382.89	1341.42
383.09	1406.95
383.30	1302.51
383.51	1355.76
383.71	1390.57
383.92	1189.87
384.12	1275.88
384.33	1247.21
384.53	1292.27
384.74	1366.00
384.94	1359.85
385.15	1384.43
385.36	1359.85
385.56	1277.93
385.77	1325.04
385.97	1206.25
386.18	1198.06
386.38	1208.30
386.59	1282.03
386.79	1292.27
387.00	1249.26
387.21	1368.04
387.41	1400.81
387.62	1402.86
387.82	1296.36
388.03	1361.90
388.23	1296.36
388.44	1247.21
388.64	1232.88
388.85	1331.18
389.06	1316.84
389.26	1333.23
389.47	1263.60
389.67	1202.16
389.88	1437.67
390.08	1279.98
390.29	1322.99
390.49	1308.65
390.70	1456.11
390.90	1259.50
391.11	1173.49
391.31	1304.56
391.52	1263.60
391.72	1339.37
391.93	1241.07
392.13	1382.38
392.34	1275.88
392.55	1325.04
392.75	1357.80
392.96	1245.16
393.16	1327.08
393.37	1259.50
393.57	1202.16
393.78	1394.67
393.98	1322.99
394.19	1353.71
394.39	1306.60
394.60	1398.76
394.80	1372.14
395.01	1419.24
395.21	1435.63
395.42	1353.71
395.62	1292.27
395.83	1241.07
396.03	1310.70
396.24	1462.25
396.44	1404.91
396.65	1277.93
396.85	1296.36
397.06	1312.75
397.26	1218.54
397.47	1325.04
397.67	1386.47
397.88	1249.26
398.08	1314.80
398.29	1273.84
398.49	1341.42
398.70	1384.43
398.90	1220.59
399.11	1300.46
399.31	1409.00
399.52	1257.45
399.72	1427.43
399.93	1353.71
400.13	1193.97
400.34	1345.52
400.54	1378.28
400.75	1284.08
400.95	1386.47
401.15	1447.91
401.36	1224.69
401.56	1265.64
401.77	1302.51
401.97	1183.73
402.18	1343.47
402.38	1259.50
402.59	1322.99
402.79	1331.18
403.00	1341.42
403.20	1343.47
403.41	1269.74
403.61	1298.41
403.82	1294.32
404.02	1236.97
404.22	1226.73
404.43	1267.69
404.63	1329.13
404.84	1341.42
405.04	1226.73
405.25	1327.08
405.45	1288.17
405.66	1265.64
405.86	1337.32
406.07	1423.34
406.27	1329.13
406.47	1339.37
406.68	1345.52
406.88	1370.09
407.09	1361.90
407.29	1339.37
407.50	1288.17
407.70	1308.65
407.91	1290.22
408.11	1404.91
408.31	1316.84
408.52	1296.36
408.72	1243.12
408.93	1263.60
409.13	1478.63
409.34	1437.67
409.54	1296.36
409.74	1361.90
409.95	1322.99
410.15	1296.36
410.36	1372.14
410.56	1239.02
410.77	1372.14
410.97	1267.69
411.17	1406.95
411.38	1335.28
411.58	1349.61
411.79	1345.52
411.99	1279.98
412.19	1308.65
412.40	1269.74
412.60	1468.39
412.81	1366.00
413.01	1366.00
413.22	1380.33
413.42	1306.60
413.62	1341.42
413.83	1378.28
414.03	1269.74
414.24	1423.34
414.44	1429.48
414.64	1406.95
414.85	1368.04
415.05	1480.68
415.26	1409.00
415.46	1361.90
415.66	1320.94
415.87	1261.55
416.07	1316.84
416.28	1267.69
416.48	1511.40
416.68	1437.67
416.89	1429.48
417.09	1421.29
417.29	1275.88
417.50	1345.52
417.70	1322.99
417.91	1378.28
418.11	1316.84
418.31	1341.42
418.52	1312.75
418.72	1413.10
418.93	1368.04
419.13	1345.52
419.33	1443.82
419.54	1316.84
419.74	1331.18
419.94	1435.63
420.15	1345.52
420.35	1384.43
420.56	1329.13
420.76	1359.85
420.96	1349.61
421.17	1322.99
421.37	1419.24
421.57	1388.52
421.78	1331.18
421.98	1443.82
422.18	1447.91
422.39	1341.42
422.59	1333.23
422.80	1409.00
423.00	1396.71
423.20	1423.34
423.41	1349.61
423.61	1411.05
423.81	1327.08
424.02	1452.01
424.22	1339.37
424.42	1398.76
424.63	1441.77
424.83	1386.47
425.03	1357.80
425.24	1497.07
425.44	1357.80
425.64	1316.84
425.85	1458.15
426.05	1456.11
426.25	1355.76
426.46	1398.76
426.66	1443.82
426.86	1480.68
427.07	1454.06
427.27	1419.24
427.47	1697.77
427.68	1327.08
427.88	1447.91
428.08	1535.98
428.29	1347.56
428.49	1327.08
428.69	1634.28
428.90	1415.15
429.10	1392.62
429.30	1509.35
429.51	1386.47
429.71	1409.00
429.91	1327.08
430.12	1488.87
430.32	1628.14
430.52	1378.28
430.72	1415.15
430.93	1384.43
431.13	1368.04
431.33	1433.58
431.54	1427.43
431.74	1431.53
431.94	1331.18
432.15	1423.34
432.35	1402.86
432.55	1341.42
432.76	1384.43
432.96	1476.59
433.16	1327.08
433.36	1523.69
433.57	1404.91
433.77	1525.74
433.97	1304.56
434.18	1406.95
434.38	1421.29
434.58	1552.36
434.78	1349.61
434.99	1538.02
435.19	1490.92
435.39	1363.95
435.60	1443.82
435.80	1630.18
436.00	1349.61
436.20	1472.49
436.41	1417.19
436.61	1421.29
436.81	1388.52
437.02	1386.47
437.22	1359.85
437.42	1519.59
437.62	1484.78
437.83	1505.26
438.03	1366.00
438.23	1470.44
438.43	1507.30
438.64	1521.64
438.84	1538.02
439.04	1480.68
439.25	1576.94
439.45	1572.84
439.65	1503.21
439.85	1433.58
440.06	1396.71
440.26	1538.02
440.46	1538.02
440.66	1517.54
440.87	1507.30
441.07	1464.30
441.27	1550.31
441.47	1503.21
441.68	1558.50
441.88	1478.63
442.08	1447.91
442.28	1554.41
442.49	1466.35
442.69	1710.05
442.89	1437.67
443.09	1441.77
443.30	1435.63
443.50	1609.70
443.70	1507.30
443.90	1468.39
444.10	1615.85
444.31	1546.22
444.51	1368.04
444.71	1568.74
444.91	1550.31
445.12	1591.27
445.32	1734.63
445.52	1484.78
445.72	1505.26
445.93	1509.35
446.13	1484.78
446.33	1503.21
446.53	1542.12
446.73	1443.82
446.94	1441.77
447.14	1542.12
447.34	1417.19
447.54	1581.03
447.74	1490.92
447.95	1576.94
448.15	1486.83
448.35	1513.45
448.55	1435.63
448.76	1462.25
448.96	1439.72
449.16	1570.79
449.36	1550.31
449.56	1427.43
449.77	1576.94
449.97	1486.83
450.17	1368.04
450.37	1634.28
450.57	1550.31
450.78	1478.63
450.98	1472.49
451.18	1560.55
451.38	1452.01
451.58	1525.74
451.79	1460.20
451.99	1507.30
452.19	1411.05
452.39	1701.86
452.59	1525.74
452.79	1544.17
453.00	1542.12
453.20	1529.83
453.40	1535.98
453.60	1585.13
453.80	1470.44
454.01	1517.54
454.21	1441.77
454.41	1490.92
454.61	1486.83
454.81	1527.78
455.01	1511.40
455.22	1499.11
455.42	1630.18
455.62	1777.64
455.82	1511.40
456.02	1535.98
456.22	1603.56
456.43	1650.66
456.63	1617.90
456.83	1503.21
457.03	1591.27
457.23	1554.41
457.43	1548.26
457.64	1576.94
457.84	1497.07
458.04	1603.56
458.24	1519.59
458.44	1605.61
458.64	1589.22
458.84	1611.75
459.05	1527.78
459.25	1538.02
459.45	1648.61
459.65	1607.66
459.85	1501.16
460.05	1628.14
460.25	1697.77
460.46	1777.64
460.66	1628.14
460.86	1642.47
461.06	1642.47
461.26	1621.99
461.46	1652.71
461.66	1673.19
461.87	1662.95
462.07	1638.38
462.27	1667.05
462.47	1644.52
462.67	1681.38
462.87	1714.15
463.07	1554.41
463.27	1628.14
463.48	1468.39
463.68	1556.46
463.88	1517.54
464.08	1710.05
464.28	1583.08
464.48	1607.66
464.68	1621.99
464.88	1691.62
465.08	1673.19
465.29	1724.39
465.49	1576.94
465.69	1726.44
465.89	1720.29
466.09	1693.67
466.29	1636.33
466.49	1554.41
466.69	1691.62
466.89	1613.80
467.10	1761.25
467.30	1617.90
467.50	1863.65
467.70	1675.24
467.90	1689.57
468.10	1740.77
468.30	1644.52
468.50	1662.95
468.70	1765.35
468.90	1730.53
469.10	1791.97
469.31	1791.97
469.51	1751.01
469.71	1722.34
469.91	1746.92
470.11	1699.81
470.31	1720.29
470.51	1904.61
470.71	1660.90
470.91	1730.53
471.11	1701.86
471.31	1828.84
471.51	1943.52
471.71	1779.68
471.92	1781.73
472.12	1669.09
472.32	1755.11
472.52	1920.99
472.72	1746.92
472.92	1882.08
473.12	1855.46
473.32	1908.71
473.52	1894.37
473.72	1931.23
473.92	1990.63
474.12	1931.23
474.32	1906.66
474.52	2002.91
474.72	1947.62
474.92	1927.14
475.13	1943.52
475.33	1931.23
475.53	2033.63
475.73	1906.66
475.93	1955.81
476.13	2027.49
476.33	2097.12
476.53	2078.69
476.73	1996.77
476.93	2111.46
477.13	2160.61
477.33	2299.87
477.53	2215.90
477.73	2363.36
477.93	2166.75
478.13	2365.40
478.33	2328.54
478.53	2398.17
478.73	2484.19
478.93	2457.56
479.13	2351.07
479.33	2455.51
479.53	2572.25
479.73	2676.70
479.93	2494.43
480.13	2521.05
480.33	2824.15
480.53	2650.07
480.73	2805.72
480.93	2844.63
481.13	2852.82
481.34	3000.27
481.54	2967.51
481.74	3135.44
481.94	3168.21
482.14	3258.32
482.34	3225.55
482.54	3424.20
482.74	3440.59
482.94	3616.71
483.14	3817.41
483.34	3803.08
483.54	3735.50
483.74	4083.65
483.94	4028.35
484.14	4165.57
484.34	4163.52
484.54	4468.67
484.74	4562.87
484.94	4730.81
485.14	4876.21
485.34	5101.49
485.54	5195.70
485.74	5330.86
485.93	5472.17
486.13	5765.03
486.33	5748.65
486.53	6170.53
486.73	6401.95
486.93	6614.94
487.13	6723.48
487.33	7061.40
487.53	7225.23
487.73	7647.12
487.93	7944.07
488.13	8419.20
488.33	8451.97
488.53	8943.48
488.73	9156.47
488.93	9631.60
489.13	10110.82
489.33	10532.70
489.53	11001.69
489.73	11366.23
489.93	11896.65
490.13	12209.99
490.33	12902.20
490.53	13276.98
490.73	13952.81
490.93	14126.89
491.13	14933.79
491.33	15681.30
491.53	15957.77
491.73	16445.19
491.93	17247.99
492.12	17794.80
492.32	18071.28
492.52	18730.72
492.72	19388.12
492.92	19873.49
493.12	20381.38
493.32	20934.34
493.52	21583.54
493.72	21690.04
493.92	22369.96
494.12	22916.77
494.32	23209.63
494.52	23828.12
494.72	23985.81
494.92	24909.44
495.12	24671.88
495.31	24800.90
495.51	25067.14
495.71	25562.75
495.91	25728.63
496.11	25702.01
496.31	26199.66
496.51	26168.94
496.71	26082.93
496.91	26330.73
497.11	26353.26
497.31	25802.36
497.51	25939.57
497.71	25882.23
497.90	25628.28
498.10	25448.06
498.30	25327.23
498.50	24858.24
498.70	24698.50
498.90	24456.84
499.10	24010.39
499.30	23563.93
499.50	23074.46
499.70	22535.85
499.89	21888.69
500.09	21302.97
500.29	20668.10
500.49	20514.50
500.69	19797.71
500.89	19246.81
501.09	19005.15
501.29	18067.18
501.49	17547.00
501.69	16885.50
501.88	16273.16
502.08	15595.28
502.28	15175.45
502.48	14532.39
502.68	13989.67
502.88	13127.48
503.08	12713.79
503.28	12015.43
503.47	11648.85
503.67	10942.30
503.87	10551.14
504.07	10076.01
504.27	9498.48
504.47	9117.56
504.67	8773.50
504.87	8206.21
505.06	7825.29
505.26	7223.19
505.46	6903.70
505.66	6715.29
505.86	6205.35
506.06	6059.94
506.26	5656.49
506.45	5246.90
506.65	5105.59
506.85	4933.56
507.05	4466.62
507.25	4413.37
507.45	4333.50
507.65	4097.99
507.84	3999.68
508.04	3891.14
508.24	3563.47
508.44	3764.17
508.64	3471.31
508.84	3284.94
509.04	3334.09
509.23	3381.20
509.43	3291.09
509.63	3088.34
509.83	2979.79
510.03	3096.53
510.23	2926.55
510.42	2926.55
510.62	3012.56
510.82	2910.16
511.02	3104.72
511.22	2908.12
511.42	2856.92
511.61	2912.21
511.81	2869.20
512.01	2820.05
512.21	2656.22
512.41	2813.91
512.60	2762.71
512.80	2830.29
513.00	2842.58
513.20	2867.16
513.40	2768.85
513.60	2764.76
513.79	2820.05
513.99	2840.53
514.19	2762.71
514.39	2762.71
514.59	2815.96
514.78	2938.84
514.98	2895.83
515.18	2791.38
515.38	2836.44
515.58	2922.45
515.77	2811.86
515.97	2779.09
516.17	2750.42
516.37	2824.15
516.57	2928.60
516.76	3022.80
516.96	2791.38
517.16	2813.91
517.36	2838.48
517.56	2916.31
517.75	2807.77
517.95	2822.10
518.15	2656.22
518.35	2871.25
518.55	2951.12
518.74	3010.51
518.94	2836.44
519.14	2840.53
519.34	2889.68
519.53	2899.92
519.73	2801.62
519.93	2957.27
520.13	2944.98
520.32	2944.98
520.52	3020.75
520.72	2893.78
520.92	2910.16
521.12	2918.36
521.31	3026.90
521.51	2893.78
521.71	3063.76
521.91	3000.27
522.10	2869.20
522.30	2961.36
522.50	2994.13
522.70	3055.57
522.89	2936.79
523.09	3076.05
523.29	2936.79
523.49	3008.47
523.68	3053.52
523.88	2924.50
524.08	3086.29
524.28	3069.91
524.47	3045.33
524.67	2967.51
524.87	2906.07
525.07	3088.34
525.26	2992.08
525.46	3110.86
525.66	3100.62
525.86	3229.65
526.05	3074.00
526.25	2985.94
526.45	3084.24
526.64	2918.36
526.84	3047.38
527.04	3002.32
527.24	3164.11
527.43	2985.94
527.63	3067.86
527.83	3164.11
528.03	2944.98
528.22	3090.38
528.42	3147.73
528.62	3170.26
528.81	3112.91
529.01	3147.73
529.21	3074.00
529.41	3176.40
529.60	3069.91
529.80	3270.61
530.00	3250.13
530.19	3121.10
530.39	3200.98
530.59	3166.16
530.79	3043.28
530.98	3133.39
531.18	2949.08
531.38	3057.62
531.57	3151.82
531.77	3067.86
531.97	3123.15
532.16	3143.63
532.36	3180.50
532.56	3143.63
532.76	3196.88
532.95	3086.29
533.15	3147.73
533.35	3262.41
533.54	3213.26
533.74	3149.78
533.94	3313.61
534.13	3037.14
534.33	3135.44
534.53	3123.15
534.72	3262.41
534.92	3203.02
535.12	3209.17
535.31	3190.74
535.51	3094.48
535.71	3047.38
535.90	3393.48
536.10	3119.06
536.30	3084.24
536.49	3145.68
536.69	3209.17
536.89	3266.51
537.08	3125.20
537.28	3061.71
537.48	3248.08
537.67	3248.08
537.87	3295.18
538.07	3188.69
538.26	3096.53
538.46	3196.88
538.66	3129.30
538.85	3155.92
539.05	3489.74
539.25	2996.18
539.44	3323.85
539.64	3104.72
539.84	3272.65
540.03	3209.17
540.23	3334.09
540.42	3241.93
540.62	3446.73
540.82	3266.51
541.01	3190.74
541.21	3149.78
541.41	3260.37
541.60	3207.12
541.80	3278.80
542.00	3231.69
542.19	3160.02
542.39	3307.47
542.58	3235.79
542.78	3241.93
542.98	3235.79
543.17	3172.30
543.37	3295.18
543.57	3272.65
543.76	3207.12
543.96	3231.69
544.15	3364.81
544.35	3276.75
544.55	3096.53
544.74	3223.50
544.94	3299.28
545.13	3160.02
545.33	3311.57
545.53	3117.01
545.72	3280.85
545.92	3207.12
546.11	3203.02
546.31	3315.66
546.51	3227.60
546.70	3330.00
546.90	3229.65
547.09	3127.25
547.29	3262.41
547.49	3231.69
547.68	3317.71
547.88	3274.70
548.07	3336.14
548.27	3200.98
548.47	3246.03
548.66	3413.96
548.86	3379.15
549.05	3080.14
549.25	3243.98
549.45	3264.46
549.64	3262.41
549.84	3520.46
550.03	3387.34
550.23	3307.47
550.42	3370.96
550.62	3346.38
550.82	3194.83
551.01	3344.33
551.21	3235.79
551.40	3297.23
551.60	3309.52
551.79	3401.68
551.99	3293.13
552.19	3268.56
552.38	3280.85
552.58	3280.85
552.77	3243.98
552.97	3481.55
553.16	3504.07
553.36	3393.48
553.55	3209.17
553.75	3504.07
553.95	3397.58
554.14	3338.19
554.34	3323.85
554.53	3278.80
554.73	3319.76
554.92	3379.15
555.12	3309.52
555.31	3270.61
555.51	3291.09
555.70	3444.68
555.90	3188.69
556.09	3368.91
556.29	3295.18
556.49	3377.10
556.68	3336.14
556.88	3323.85
557.07	3512.27
557.27	3291.09
557.46	3483.59
557.66	3342.28
557.85	3338.19
558.05	3403.72
558.24	3360.72
558.44	3364.81
558.63	3499.98
558.83	3291.09
559.02	3469.26
559.22	3295.18
559.41	3352.52
559.61	3567.56
559.80	3465.16
560.00	3411.92
560.19	3379.15
560.39	3340.24
560.58	3512.27
560.78	3289.04
560.97	3354.57
561.17	3375.05
561.36	3506.12
561.56	3395.53
561.75	3405.77
561.95	3493.83
562.14	3516.36
562.34	3452.88
562.53	3444.68
562.73	3483.59
562.92	3360.72
563.12	3325.90
563.31	3387.34
563.51	3430.35
563.70	3665.86
563.90	3461.07
564.09	3434.44
564.29	3346.38
564.48	3385.29
564.68	3399.63
564.87	3641.29
565.07	3508.17
565.26	3432.40
565.46	3364.81
565.65	3442.64
565.85	3434.44
566.04	3399.63
566.24	3522.51
566.43	3393.48
566.63	3321.81
566.82	3405.77
567.01	3422.16
567.21	3536.84
567.40	3583.95
567.60	3387.34
567.79	3477.45
567.99	3524.55
568.18	3354.57
568.38	3491.79
568.57	3481.55
568.77	3532.75
568.96	3542.99
569.15	3442.64
569.35	3450.83
569.54	3536.84
569.74	3418.06
569.93	3303.37
570.13	3495.88
570.32	3495.88
570.52	3420.11
570.71	3637.19
570.90	3577.80
571.10	3606.47
571.29	3424.20
571.49	3309.52
571.68	3411.92
571.88	3518.41
572.07	3422.16
572.26	3475.40
572.46	3409.87
572.65	3440.59
572.85	3553.23
573.04	3405.77
573.24	3477.45
573.43	3551.18
573.62	3524.55
573.82	3422.16
574.01	3493.83
574.21	3493.83
574.40	3379.15
574.59	3360.72
574.79	3581.90
574.98	3629.00
575.18	3452.88
575.37	3665.86
575.56	3377.10
575.76	3340.24
575.95	3600.33
576.15	3493.83
576.34	3438.54
576.53	3469.26
576.73	3434.44
576.92	3360.72
577.12	3413.96
577.31	3653.58
577.50	3377.10
577.70	3456.97
577.89	3495.88
578.09	3522.51
578.28	3438.54
578.47	3526.60
578.67	3643.34
578.86	3657.67
579.06	3499.98
579.25	3504.07
579.44	3471.31
579.64	3684.30
579.83	3514.31
580.02	3555.27
580.22	3575.75
580.41	3510.22
580.61	3622.86
580.80	3594.19
580.99	3526.60
581.19	3600.33
581.38	3651.53
581.57	3473.36
581.77	3590.09
581.96	3407.82
582.15	3551.18
582.35	3569.61
582.54	3332.05
582.73	3563.47
582.93	3524.55
583.12	3563.47
583.32	3526.60
583.51	3610.57
583.70	3528.65
583.90	3600.33
584.09	3502.03
584.28	3678.15
584.48	3477.45
584.67	3473.36
584.86	3430.35
585.06	3489.74
585.25	3534.79
585.44	3659.72
585.64	3526.60
585.83	3698.63
586.02	3514.31
586.22	3645.38
586.41	3444.68
586.60	3573.71
586.80	3563.47
586.99	3377.10
587.18	3534.79
587.38	3581.90
587.57	3645.38
587.76	3524.55
587.96	3485.64
588.15	3684.30
588.34	3313.61
588.53	3581.90
588.73	3467.21
588.92	3608.52
589.11	3532.75
589.31	3553.23
589.50	3600.33
589.69	3553.23
589.89	3520.46
590.08	3692.49
590.27	3422.16
590.47	3469.26
590.66	3370.96
590.85	3536.84
591.04	3444.68
591.24	3422.16
591.43	3637.19
591.62	3502.03
591.82	3577.80
592.01	3565.51
592.20	3825.61
592.39	3676.10
592.59	3635.14
592.78	3614.66
592.97	3629.00
593.17	3604.42
593.36	3567.56
593.55	3637.19
593.74	3506.12
593.94	3631.05
594.13	3428.30
594.32	3575.75
594.52	3569.61
594.71	3553.23
594.90	3540.94
595.09	3553.23
595.29	3520.46
595.48	3577.80
595.67	3581.90
595.86	3473.36
596.06	3614.66
596.25	3444.68
596.44	3575.75
596.63	3483.59
596.83	3569.61
597.02	3581.90
597.21	3479.50
597.40	3602.38
597.60	3512.27
597.79	3772.36
597.98	3485.64
598.17	3563.47
598.37	3667.91
598.56	3522.51
598.75	3553.23
598.94	3606.47
599.14	3567.56
599.33	3538.89
599.52	3565.51
599.71	3577.80
599.91	3704.78
600.10	3487.69
600.29	3569.61
600.48	3688.39
600.68	3569.61
600.87	3571.66
601.06	3708.87
601.25	3645.38
601.44	3618.76
601.64	3590.09
601.83	3649.48
602.02	3532.75
602.21	3665.86
602.41	3563.47
602.60	3588.04
602.79	3512.27
602.98	3772.36
603.17	3622.86
603.37	3598.28
603.56	3672.01
603.75	3612.62
603.94	3651.53
604.13	3692.49
604.33	3768.26
604.52	3547.08
604.71	3473.36
604.90	3483.59
605.09	3604.42
605.29	3753.93
605.48	3672.01
605.67	3547.08
605.86	3651.53
606.05	3741.64
606.25	3585.99
606.44	3643.34
606.63	3555.27
606.82	3833.80
607.01	3610.57
607.20	3733.45
607.40	3782.60
607.59	3747.78
607.78	3684.30
607.97	3643.34
608.16	3649.48
608.36	3733.45
608.55	3516.36
608.74	3641.29
608.93	3758.02
609.12	3663.82
609.31	3557.32
609.51	3620.81
609.70	3762.12
609.89	3667.91
610.08	3581.90
610.27	3569.61
610.46	3516.36
610.66	3698.63
610.85	3678.15
611.04	3581.90
611.23	3688.39
611.42	3672.01
611.61	3655.62
611.80	3629.00
612.00	3774.41
612.19	3758.02
612.38	3717.06
612.57	3704.78
612.76	3710.92
612.95	3872.71
613.14	3796.93
613.34	3698.63
613.53	3700.68
613.72	3692.49
613.91	3616.71
614.10	3733.45
614.29	3825.61
614.48	3629.00
614.67	3620.81
614.87	3694.54
615.06	3755.97
615.25	3862.47
615.44	3702.73
615.63	3663.82
615.82	3829.70
616.01	3782.60
616.20	3647.43
616.40	3667.91
616.59	3829.70
616.78	3741.64
616.97	3747.78
617.16	3635.14
617.35	3741.64
617.54	3870.66
617.73	3764.17
617.92	3700.68
618.12	3665.86
618.31	3821.51
618.50	3952.58
618.69	3747.78
618.88	3846.09
619.07	3831.75
619.26	3786.69
619.45	3733.45
619.64	3688.39
619.83	3643.34
620.02	3717.06
620.22	3739.59
620.41	3751.88
620.60	3790.79
620.79	3753.93
620.98	3561.42
621.17	3604.42
621.36	3852.23
621.55	3694.54
621.74	3731.40
621.93	3852.23
622.12	3866.56
622.31	3938.24
622.51	3872.71
622.70	3674.06
622.89	3837.89
623.08	3852.23
623.27	3805.13
623.46	3858.37
623.65	3758.02
623.84	3762.12
624.03	3837.89
624.22	3907.52
624.41	3887.04
624.60	3792.84
624.79	3790.79
624.98	4050.88
625.17	3751.88
625.36	3897.28
625.55	3825.61
625.74	3872.71
625.94	4016.07
626.13	3899.33
626.32	3798.98
626.51	3882.95
626.70	3891.14
626.89	3762.12
627.08	3878.85
627.27	3778.50
627.46	3889.09
627.65	3936.20
627.84	3790.79
628.03	3876.80
628.22	3753.93
628.41	3874.76
628.60	3712.97
628.79	3796.93
628.98	3915.72
629.17	3815.37
629.36	3778.50
629.55	3928.00
629.74	3682.25
629.93	3653.58
630.12	3776.45
630.31	3876.80
630.50	3794.89
630.69	3925.96
630.88	3772.36
631.07	3860.42
631.26	3880.90
631.45	3823.56
631.64	3919.81
631.83	3782.60
632.02	3846.09
632.21	3733.45
632.40	3825.61
632.59	3794.89
632.78	3698.63
632.97	3690.44
633.16	3770.31
633.35	3839.94
633.54	3747.78
633.73	3602.38
633.92	3733.45
634.11	3719.11
634.30	3653.58
634.49	3805.13
634.68	3719.11
634.87	3835.85
635.06	3803.08
635.25	3686.34
635.44	3850.18
635.63	3694.54
635.82	3684.30
636.01	3755.97
636.20	3956.68
636.39	3782.60
636.58	3762.12
636.77	3749.83
636.96	3751.88
637.15	3813.32
637.34	3792.84
637.53	3641.29
637.72	3837.89
637.91	3753.93
638.09	3854.28
638.28	3721.16
638.47	3749.83
638.66	3825.61
638.85	3684.30
639.04	3885.00
639.23	3745.73
639.42	3833.80
639.61	3760.07
639.80	3813.32
639.99	3794.89
640.18	3698.63
640.37	3995.59
640.56	3624.90
640.75	3579.85
640.94	3774.41
641.13	3659.72
641.32	3919.81
641.50	3721.16
641.69	3760.07
641.88	3776.45
642.07	3760.07
642.26	3880.90
642.45	3692.49
642.64	3676.10
642.83	3815.37
643.02	3811.27
643.21	3872.71
643.40	3848.13
643.59	3516.36
643.77	3669.96
643.96	3706.82
644.15	3782.60
644.34	3600.33
644.53	3729.35
644.72	3653.58
644.91	3741.64
645.10	3766.21
645.29	3704.78
645.48	3692.49
645.67	3712.97
645.85	3803.08
646.04	3749.83
646.23	3743.69
646.42	3665.86
646.61	3635.14
646.80	3715.02
646.99	3626.95
647.18	3680.20
647.37	3672.01
647.55	3745.73
647.74	3700.68
647.93	3680.20
648.12	3583.95
648.31	3747.78
648.50	3688.39
648.69	3768.26
648.88	3614.66
649.06	3653.58
649.25	3633.10
649.44	3549.13
649.63	3577.80
649.82	3778.50
650.01	3680.20
650.20	3643.34
650.39	3655.62
650.57	3739.59
650.76	3665.86
650.95	3667.91
651.14	3655.62
651.33	3588.04
651.52	3610.57
651.70	3667.91
651.89	3739.59
652.08	3563.47
652.27	3876.80
652.46	3653.58
652.65	3592.14
652.84	3729.35
653.02	3774.41
653.21	3712.97
653.40	3604.42
653.59	3567.56
653.78	3680.20
653.97	3733.45
654.15	3758.02
654.34	3604.42
654.53	3547.08
654.72	3573.71
654.91	3549.13
655.10	3712.97
655.28	3700.68
655.47	3659.72
655.66	3567.56
655.85	3655.62
656.04	3497.93
656.23	3680.20
656.41	3581.90
656.60	3577.80
656.79	3598.28
656.98	3633.10
657.17	3608.52
657.35	3622.86
657.54	3430.35
657.73	3633.10
657.92	3602.38
658.11	3631.05
658.29	3483.59
658.48	3626.95
658.67	3516.36
658.86	3708.87
659.05	3487.69
659.23	3694.54
659.42	3596.23
659.61	3518.41
659.80	3510.22
659.99	3612.62
660.17	3592.14
660.36	3606.47
660.55	3577.80
660.74	3528.65
660.92	3559.37
661.11	3573.71
661.30	3641.29
661.49	3549.13
661.68	3491.79
661.86	3510.22
662.05	3522.51
662.24	3545.03
662.43	3731.40
662.61	3536.84
662.80	3610.57
662.99	3508.17
663.18	3686.34
663.37	3436.49
663.55	3567.56
663.74	3661.77
663.93	3346.38
664.12	3577.80
664.30	3510.22
664.49	3569.61
664.68	3483.59
664.87	3360.72
665.05	3545.03
665.24	3608.52
665.43	3641.29
665.62	3542.99
665.80	3565.51
665.99	3590.09
666.18	3661.77
666.37	3598.28
666.55	3618.76
666.74	3418.06
666.93	3655.62
667.11	3454.92
667.30	3459.02
667.49	3620.81
667.68	3653.58
667.86	3504.07
668.05	3596.23
668.24	3561.42
668.43	3504.07
668.61	3538.89
668.80	3639.24
668.99	3452.88
669.17	3608.52
669.36	3618.76
669.55	3534.79
669.74	3493.83
669.92	3561.42
670.11	3487.69
670.30	3557.32
670.48	3561.42
670.67	3579.85
670.86	3567.56
671.05	3487.69
671.23	3495.88
671.42	3491.79
671.61	3549.13
671.79	3508.17
671.98	3413.96
672.17	3399.63
672.35	3643.34
672.54	3512.27
672.73	3559.37
672.91	3422.16
673.10	3506.12
673.29	3424.20
673.48	3461.07
673.66	3495.88
673.85	3604.42
674.04	3430.35
674.22	3626.95
674.41	3495.88
674.60	3594.19
674.78	3352.52
674.97	3516.36
675.16	3508.17
675.34	3456.97
675.53	3502.03
675.72	3588.04
675.90	3637.19
676.09	3547.08
676.28	3508.17
676.46	3565.51
676.65	3461.07
676.84	3526.60
677.02	3592.14
677.21	3516.36
677.40	3522.51
677.58	3491.79
677.77	3442.64
677.95	3354.57
678.14	3473.36
678.33	3555.27
678.51	3534.79
678.70	3418.06
678.89	3426.25
679.07	3405.77
679.26	3436.49
679.45	3604.42
679.63	3504.07
679.82	3641.29
680.01	3499.98
680.19	3397.58
680.38	3483.59
680.56	3395.53
680.75	3526.60
680.94	3465.16
681.12	3420.11
681.31	3430.35
681.50	3438.54
681.68	3370.96
681.87	3368.91
682.05	3436.49
682.24	3577.80
682.43	3430.35
682.61	3481.55
682.80	3370.96
682.98	3381.20
683.17	3387.34
683.36	3385.29
683.54	3444.68
683.73	3637.19
683.91	3569.61
684.10	3493.83
684.29	3530.70
684.47	3465.16
684.66	3434.44
684.84	3428.30
685.03	3389.39
685.22	3561.42
685.40	3452.88
685.59	3340.24
685.77	3659.72
685.96	3512.27
686.15	3430.35
686.33	3475.40
686.52	3481.55
686.70	3581.90
686.89	3448.78
687.07	3377.10
687.26	3262.41
687.45	3387.34
687.63	3387.34
687.82	3516.36
688.00	3514.31
688.19	3436.49
688.37	3553.23
688.56	3397.58
688.75	3422.16
688.93	3459.02
689.12	3483.59
689.30	3364.81
689.49	3409.87
689.67	3381.20
689.86	3497.93
690.04	3448.78
690.23	3176.40
690.42	3497.93
690.60	3532.75
690.79	3475.40
690.97	3571.66
691.16	3256.27
691.34	3538.89
691.53	3469.26
691.71	3467.21
691.90	3401.68
692.08	3389.39
692.27	3452.88
692.45	3405.77
692.64	3522.51
692.83	3469.26
693.01	3399.63
693.20	3305.42
693.38	3350.48
693.57	3364.81
693.75	3155.92
693.94	3405.77
694.12	3452.88
694.31	3395.53
694.49	3430.35
694.68	3383.24
694.86	3459.02
695.05	3356.62
695.23	3461.07
695.42	3383.24
695.60	3502.03
695.79	3493.83
695.97	3360.72
696.16	3436.49
696.34	3313.61
696.53	3319.76
696.71	3434.44
696.90	3352.52
697.08	3276.75
697.27	3356.62
697.45	3332.05
697.64	3571.66
697.82	3364.81
698.01	3489.74
698.19	3491.79
698.38	3368.91
698.56	3442.64
698.75	3413.96
698.93	3373.00
699.12	3452.88
699.30	3432.40
699.49	3536.84
699.67	3356.62
699.86	3348.43
700.04	3348.43
700.22	3397.58
700.41	3291.09
700.59	3444.68
700.78	3399.63
700.96	3311.57
701.15	3260.37
701.33	3274.70
701.52	3325.90
701.70	3340.24
701.89	3381.20
702.07	3200.98
702.26	3321.81
702.44	3436.49
702.62	3278.80
702.81	3340.24
702.99	3356.62
703.18	3332.05
703.36	3297.23
703.55	3446.73
703.73	3373.00
703.92	3307.47
704.10	3278.80
704.28	3293.13
704.47	3348.43
704.65	3258.32
704.84	3313.61
705.02	3243.98
705.21	3203.02
705.39	3303.37
705.57	3272.65
705.76	3284.94
705.94	3311.57
706.13	3434.44
706.31	3342.28
706.50	3293.13
706.68	3209.17
706.86	3166.16
707.05	3319.76
707.23	3235.79
707.42	3377.10
707.60	3192.78
707.78	3352.52
707.97	3256.27
708.15	3264.46
708.34	3264.46
708.52	3151.82
708.70	3276.75
708.89	3196.88
709.07	3168.21
709.26	3260.37
709.44	3379.15
709.62	3256.27
709.81	3168.21
709.99	3278.80
710.18	3207.12
710.36	3188.69
710.54	3405.77
710.73	3137.49
710.91	3160.02
711.10	3266.51
711.28	3198.93
711.46	3057.62
711.65	3198.93
711.83	3213.26
712.01	3387.34
712.20	3135.44
712.38	3151.82
712.57	3182.54
712.75	3196.88
712.93	3295.18
713.12	3168.21
713.30	3123.15
713.48	3139.54
713.67	3190.74
713.85	3155.92
714.03	3319.76
714.22	3182.54
714.40	3098.58
714.58	3131.34
714.77	3192.78
714.95	3147.73
715.14	3143.63
715.32	3135.44
715.50	3168.21
715.69	2992.08
715.87	3145.68
716.05	3102.67
716.24	3121.10
716.42	3114.96
716.60	3147.73
716.79	3184.59
716.97	3129.30
717.15	3078.10
717.34	3160.02
717.52	3135.44
717.70	3061.71
717.89	3133.39
718.07	2998.23
718.25	2949.08
718.44	3098.58
718.62	3100.62
718.80	3186.64
718.98	2918.36
719.17	2981.84
719.35	3219.41
719.53	3092.43
719.72	3014.61
719.90	3078.10
720.08	3008.47
720.27	2883.54
720.45	3057.62
720.63	3039.19
720.82	3090.38
721.00	3096.53
721.18	2940.88
721.36	3030.99
721.55	3211.22
721.73	3057.62
721.91	3209.17
722.10	3045.33
722.28	2979.79
722.46	2938.84
722.64	2885.59
722.83	2871.25
723.01	3106.77
723.19	2926.55
723.38	2904.02
723.56	2973.65
723.74	2977.75
723.92	3067.86
724.11	3012.56
724.29	2936.79
724.47	2930.64
724.65	3000.27
724.84	2942.93
725.02	3139.54
725.20	3030.99
725.39	2918.36
725.57	3037.14
725.75	2969.55
725.93	3108.82
726.12	2963.41
726.30	2842.58
726.48	2914.26
726.66	2834.39
726.85	2775.00
727.03	2899.92
727.21	2881.49
727.39	2883.54
727.58	2985.94
727.76	2830.29
727.94	2836.44
728.12	3002.32
728.30	2789.33
728.49	2865.11
728.67	2910.16
728.85	2897.88
729.03	2844.63
729.22	2934.74
729.40	2875.35
729.58	2932.69
729.76	2779.09
729.95	2893.78
730.13	2871.25
730.31	2885.59
730.49	2908.12
730.67	2797.53
730.86	2854.87
731.04	2932.69
731.22	2779.09
731.40	2811.86
731.58	2938.84
731.77	2940.88
731.95	2867.16
732.13	2840.53
732.31	2852.82
732.50	2922.45
732.68	2789.33
732.86	2865.11
733.04	2746.33
733.22	2861.01
733.40	2715.61
733.59	2723.80
733.77	2832.34
733.95	2848.72
734.13	2834.39
734.31	2801.62
734.50	2873.30
734.68	2838.48
734.86	2838.48
735.04	2789.33
735.22	2686.94
735.41	2789.33
735.59	2820.05
735.77	2758.61
735.95	2879.44
736.13	2707.41
736.31	2713.56
736.50	2756.57
736.68	3012.56
736.86	2643.93
737.04	2758.61
737.22	2758.61
737.40	2912.21
737.59	2715.61
737.77	2791.38
737.95	2787.29
738.13	2705.37
738.31	2803.67
738.49	2754.52
738.67	2734.04
738.86	2705.37
739.04	2734.04
739.22	2861.01
739.40	2738.13
739.58	2719.70
739.76	2682.84
739.94	2766.81
740.13	2863.06
740.31	2799.57
740.49	2736.09
740.67	2742.23
740.85	2688.98
741.03	2600.92
741.21	2723.80
741.39	2650.07
741.58	2779.09
741.76	2768.85
741.94	2684.89
742.12	2602.97
742.30	2699.22
742.48	2654.17
742.66	2711.51
742.84	2609.11
743.03	2576.34
743.21	2672.60
743.39	2670.55
743.57	2693.08
743.75	2693.08
743.93	2623.45
744.11	2766.81
744.29	2688.98
744.47	2516.95
744.65	2801.62
744.84	2576.34
745.02	2645.98
745.20	2582.49
745.38	2631.64
745.56	2539.48
745.74	2590.68
745.92	2600.92
746.10	2598.87
746.28	2564.06
746.46	2494.43
746.64	2600.92
746.82	2684.89
747.01	2469.85
747.19	2566.10
747.37	2570.20
747.55	2705.37
747.73	2504.67
747.91	2539.48
748.09	2578.39
748.27	2592.73
748.45	2531.29
748.63	2539.48
748.81	2467.80
748.99	2660.31
749.17	2615.26
749.35	2506.71
749.53	2482.14
749.72	2666.46
749.90	2398.17
750.08	2639.83
750.26	2551.77
750.44	2631.64
750.62	2566.10
750.80	2521.05
750.98	2564.06
751.16	2451.42
751.34	2494.43
751.52	2572.25
751.70	2508.76
751.88	2564.06
752.06	2519.00
752.24	2320.35
752.42	2535.39
752.60	2574.30
752.78	2414.56
752.96	2478.04
753.14	2523.10
753.32	2506.71
753.50	2480.09
753.68	2457.56
753.86	2486.23
754.04	2463.71
754.22	2545.63
754.40	2525.15
754.58	2406.36
754.76	2441.18
754.94	2414.56
755.12	2625.50
755.30	2465.75
755.48	2555.86
755.66	2568.15
755.84	2455.51
756.02	2510.81
756.20	2369.50
756.38	2443.23
756.56	2414.56
756.74	2490.33
756.92	2512.86
757.10	2469.85
757.28	2461.66
757.46	2363.36
757.64	2439.13
757.82	2312.16
758.00	2502.62
758.18	2367.45
758.36	2432.99
758.54	2502.62
758.72	2521.05
758.90	2412.51
759.08	2437.08
759.26	2627.54
759.44	2414.56
759.62	2551.77
759.80	2451.42
759.98	2469.85
760.16	2568.15
760.34	2439.13
760.52	2541.53
760.70	2504.67
760.88	2410.46
761.06	2385.88
761.24	2478.04
761.42	2406.36
761.60	2494.43
761.77	2480.09
761.95	2387.93
762.13	2519.00
762.31	2398.17
762.49	2357.21
762.67	2539.48
762.85	2295.77
763.03	2353.12
763.21	2422.75
763.39	2392.03
763.57	2408.41
763.75	2451.42
763.93	2480.09
764.11	2398.17
764.29	2289.63
764.46	2467.80
764.64	2383.84
764.82	2402.27
765.00	2398.17
765.18	2486.23
765.36	2424.80
765.54	2377.69
765.72	2459.61
765.90	2287.58
766.08	2475.99
766.26	2430.94
766.44	2344.92
766.61	2310.11
766.79	2428.89
766.97	2299.87
767.15	2346.97
767.33	2252.77
767.51	2303.96
767.69	2361.31
767.87	2369.50
768.05	2310.11
768.22	2383.84
768.40	2439.13
768.58	2414.56
768.76	2326.49
768.94	2408.41
769.12	2299.87
769.30	2258.91
769.48	2439.13
769.66	2303.96
769.83	2299.87
770.01	2301.92
770.19	2299.87
770.37	2357.21
770.55	2240.48
770.73	2369.50
770.91	2303.96
771.09	2316.25
771.26	2199.52
771.44	2492.38
771.62	2281.44
771.80	2394.08
771.98	2361.31
772.16	2322.40
772.34	2316.25
772.51	2283.49
772.69	2455.51
772.87	2527.19
773.05	2275.29
773.23	2248.67
773.41	2176.99
773.58	2422.75
773.76	2355.16
773.94	2346.97
774.12	2344.92
774.30	2385.88
774.48	2271.20
774.65	2144.22
774.83	2318.30
775.01	2224.09
775.19	2248.67
775.37	2349.02
775.55	2314.20
775.72	2263.01
775.90	2318.30
776.08	2217.95
776.26	2478.04
776.44	2267.10
776.61	2224.09
776.79	2328.54
776.97	2254.81
777.15	2281.44
777.33	2123.74
777.51	2138.08
777.68	2260.96
777.86	2156.51
778.04	2185.18
778.22	2183.13
778.40	2318.30
778.57	2265.05
778.75	2195.42
778.93	2133.98
779.11	2260.96
779.29	2256.86
779.46	2242.53
779.64	2166.75
779.82	2297.82
780.00	2217.95
780.17	2123.74
780.35	2183.13
780.53	2267.10
780.71	2289.63
780.89	2234.33
781.06	2181.09
781.24	2275.29
781.42	2197.47
781.60	2275.29
781.77	2093.02
781.95	2162.66
782.13	2131.94
782.31	2146.27
782.48	2209.76
782.66	2115.55
782.84	2267.10
783.02	2127.84
783.19	2209.76
783.37	2166.75
783.55	2211.81
783.73	2168.80
783.90	2150.37
784.08	2160.61
784.26	2084.83
784.44	2160.61
784.61	2230.24
784.79	2224.09
784.97	2052.06
785.15	2332.64
785.32	2103.26
785.50	2213.85
785.68	2254.81
785.86	2060.26
786.03	2062.30
786.21	2332.64
786.39	2158.56
786.57	2107.36
786.74	2084.83
786.92	2101.22
787.10	2181.09
787.27	2090.98
787.45	2103.26
787.63	2121.70
787.81	2217.95
787.98	2093.02
788.16	2199.52
788.34	2263.01
788.51	2164.70
788.69	2099.17
788.87	2148.32
789.04	2283.49
789.22	2246.62
789.40	2013.15
789.58	2088.93
789.75	2142.18
789.93	2217.95
790.11	2097.12
790.28	2064.35
790.46	2320.35
790.64	2113.50
790.81	2076.64
790.99	2068.45
791.17	2217.95
791.34	2142.18
791.52	2117.60
791.70	2133.98
791.87	2213.85
792.05	2170.85
792.23	2023.39
792.40	2117.60
792.58	2101.22
792.76	2142.18
792.93	2246.62
793.11	2170.85
793.29	2187.23
793.46	2228.19
793.64	2158.56
793.82	2185.18
793.99	2136.03
794.17	2031.58
794.35	1994.72
794.52	2199.52
794.70	2209.76
794.88	2209.76
795.05	2201.57
795.23	1968.10
795.41	2152.42
795.58	2019.30
795.76	2119.65
795.94	2056.16
796.11	2123.74
796.29	2078.69
796.46	2250.72
796.64	2025.44
796.82	2144.22
796.99	2138.08
797.17	2084.83
797.35	2138.08
797.52	2125.79
797.70	2199.52
797.87	2176.99
798.05	2179.04
798.23	2136.03
798.40	2258.91
798.58	1910.75
798.76	2029.54
798.93	2136.03
799.11	2052.06
799.28	2156.51
799.46	2050.02
799.64	2021.35
799.81	2140.13
799.99	2119.65
800.16	2062.30
800.34	2017.25
800.52	2021.35
800.69	2195.42
800.87	2027.49
801.04	1966.05
801.22	2133.98
801.39	2086.88
801.57	2050.02
801.75	2080.74
801.92	2097.12
802.10	2062.30
802.27	2033.63
802.45	2146.27
802.63	2072.54
802.80	2185.18
802.98	1951.71
803.15	2201.57
803.33	2058.21
803.50	2115.55
803.68	2068.45
803.86	2168.80
804.03	2111.46
804.21	2113.50
804.38	2115.55
804.56	2316.25
804.73	2213.85
804.91	2017.25
805.08	1994.72
805.26	2062.30
805.44	1937.38
805.61	2109.41
805.79	2054.11
805.96	2115.55
806.14	2041.82
806.31	1966.05
806.49	2095.07
806.66	2133.98
806.84	2029.54
807.01	2172.89
807.19	2017.25
807.36	2062.30
807.54	2074.59
807.71	1976.29
807.89	2119.65
808.07	2095.07
808.24	2103.26
808.42	2117.60
808.59	2064.35
808.77	2037.73
808.94	2127.84
809.12	2127.84
809.29	2191.33
809.47	2093.02
809.64	2013.15
809.82	2111.46
809.99	2050.02
810.17	2097.12
810.34	2068.45
810.52	1972.19
810.69	2054.11
810.87	1990.63
811.04	2084.83
811.22	2129.89
811.39	1990.63
811.57	1968.10
811.74	2043.87
811.92	2043.87
812.09	2152.42
812.27	2263.01
812.44	2027.49
812.62	2086.88
812.79	2066.40
812.97	2144.22
813.14	2054.11
813.31	1939.43
813.49	2070.50
813.66	1984.48
813.84	2050.02
814.01	2013.15
814.19	2015.20
814.36	2033.63
814.54	2004.96
814.71	2013.15
814.89	2144.22
815.06	1990.63
815.24	2027.49
815.41	2007.01
815.58	2070.50
815.76	2164.70
815.93	2236.38
816.11	2123.74
816.28	1871.84
816.46	2109.41
816.63	2107.36
816.81	1988.58
816.98	2072.54
817.15	1961.95
817.33	2207.71
817.50	1935.33
817.68	1996.77
817.85	2080.74
818.03	1935.33
818.20	2084.83
818.37	1957.86
818.55	2015.20
818.72	2021.35
818.90	2080.74
819.07	2127.84
819.25	2148.32
819.42	2035.68
819.59	2054.11
819.77	1886.18
819.94	2015.20
820.12	2119.65
820.29	2119.65
820.46	2027.49
820.64	2045.92
820.81	2037.73
820.99	2031.58
821.16	1959.91
821.33	2043.87
821.51	2146.27
821.68	2047.97
821.86	2244.57
822.03	2029.54
822.20	2125.79
822.38	2013.15
822.55	2062.30
822.73	1906.66
822.90	2101.22
823.07	1904.61
823.25	1980.39
823.42	1939.43
823.59	2158.56
823.77	2052.06
823.94	2131.94
824.12	2017.25
824.29	2017.25
824.46	1970.15
824.64	2070.50
824.81	2056.16
824.98	1900.52
825.16	2033.63
825.33	1927.14
825.50	1984.48
825.68	2023.39
825.85	2140.13
826.03	2060.26
826.20	1925.09
826.37	2097.12
826.55	2035.68
826.72	2000.87
826.89	1994.72
827.07	1988.58
827.24	1951.71
827.41	1980.39
827.59	1974.24
827.76	2000.87
827.93	2023.39
828.11	2013.15
828.28	1961.95
828.45	2060.26
828.63	1943.52
828.80	1996.77
828.97	1980.39
829.15	2015.20
829.32	1892.32
829.49	2082.78
829.67	1916.90
829.84	1923.04
830.01	1984.48
830.18	1927.14
830.36	2041.82
830.53	1916.90
830.70	1898.47
830.88	1900.52
831.05	1974.24
831.22	2090.98
831.40	1927.14
831.57	1894.37
831.74	2045.92
831.91	2093.02
832.09	2047.97
832.26	1947.62
832.43	2037.73
832.61	2033.63
832.78	1955.81
832.95	1910.75
833.13	1939.43
833.30	2009.06
833.47	2017.25
833.64	2000.87
833.82	2025.44
833.99	1923.04
834.16	1943.52
834.33	1959.91
834.51	1988.58
834.68	2078.69
834.85	1941.47
835.03	1984.48
835.20	1832.93
835.37	1918.95
835.54	1873.89
835.72	1990.63
835.89	1951.71
836.06	1918.95
836.23	1964.00
836.41	1800.16
836.58	1951.71
836.75	1974.24
836.92	1873.89
837.10	1800.16
837.27	1980.39
837.44	2002.91
837.61	1884.13
837.78	2027.49
837.96	1986.53
838.13	1947.62
838.30	1923.04
838.47	1933.28
838.65	1703.91
838.82	1869.80
838.99	1877.99
839.16	1771.49
839.34	1953.76
839.51	1902.56
839.68	1884.13
839.85	1951.71
840.02	1820.64
840.20	1865.70
840.37	1771.49
840.54	1830.88
840.71	2111.46
840.88	1880.04
841.06	1906.66
841.23	1920.99
841.40	2011.11
841.57	1830.88
841.74	1761.25
841.92	1787.88
842.09	1865.70
842.26	1980.39
842.43	1714.15
842.60	1818.60
842.78	1798.12
842.95	1818.60
843.12	1830.88
843.29	1910.75
843.46	1884.13
843.64	1804.26
843.81	1896.42
843.98	1884.13
844.15	2062.30
844.32	1767.40
844.49	1896.42
844.67	1947.62
844.84	1875.94
845.01	1845.22
845.18	1773.54
845.35	1814.50
845.52	1728.49
845.70	1964.00
845.87	1970.15
846.04	1949.67
846.21	1775.59
846.38	1947.62
846.55	1826.79
846.72	1798.12
846.90	1832.93
847.07	1746.92
847.24	1853.41
847.41	1742.82
847.58	1791.97
847.75	1755.11
847.92	1804.26
848.10	1867.75
848.27	1714.15
848.44	1814.50
848.61	1748.97
848.78	1773.54
848.95	1722.34
849.12	1865.70
849.29	1763.30
849.47	1869.80
849.64	1808.36
849.81	1816.55
849.98	1830.88
850.15	1902.56
850.32	1779.68
850.49	1832.93
850.66	1738.73
850.84	1828.84
851.01	1583.08
851.18	1890.28
851.35	1673.19
851.52	1722.34
851.69	1763.30
851.86	1830.88
852.03	1736.68
852.20	1726.44
852.37	1771.49
852.54	1787.88
852.72	1832.93
852.89	1818.60
853.06	1802.21
853.23	1748.97
853.40	1691.62
853.57	1724.39
853.74	1855.46
853.91	1712.10
854.08	1732.58
854.25	1597.42
854.42	1742.82
854.59	1841.12
854.76	1724.39
854.94	1654.76
855.11	1789.92
855.28	1722.34
855.45	1765.35
855.62	1714.15
855.79	1689.57
855.96	1699.81
856.13	1654.76
856.30	1621.99
856.47	1808.36
856.64	1705.96
856.81	1714.15
856.98	1738.73
857.15	1757.16
857.32	1691.62
857.49	1708.01
857.66	1609.70
857.83	1636.33
858.00	1744.87
858.17	1697.77
858.35	1761.25
858.52	1800.16
858.69	1665.00
858.86	1564.65
859.03	1773.54
859.20	1640.42
859.37	1621.99
859.54	1730.53
859.71	1669.09
859.88	1699.81
860.05	1665.00
860.22	1624.04
860.39	1693.67
860.56	1558.50
860.73	1660.90
860.90	1636.33
861.07	1722.34
861.24	1660.90
861.41	1734.63
861.58	1546.22
861.75	1570.79
861.92	1722.34
862.09	1650.66
862.26	1628.14
862.43	1621.99
862.60	1570.79
862.77	1765.35
862.94	1529.83
863.11	1566.70
863.28	1644.52
863.45	1613.80
863.62	1492.97
863.79	1626.09
863.96	1710.05
864.13	1779.68
864.30	1568.74
864.46	1515.50
864.63	1660.90
864.80	1501.16
864.97	1683.43
865.14	1509.35
865.31	1564.65
865.48	1599.46
865.65	1583.08
865.82	1714.15
865.99	1660.90
866.16	1675.24
866.33	1558.50
866.50	1570.79
866.67	1763.30
866.84	1558.50
867.01	1648.61
867.18	1699.81
867.35	1708.01
867.52	1763.30
867.69	1578.98
867.85	1495.02
868.02	1654.76
868.19	1607.66
868.36	1544.17
868.53	1628.14
868.70	1656.81
868.87	1589.22
869.04	1589.22
869.21	1658.85
869.38	1650.66
869.55	1718.25
869.72	1540.07
869.89	1578.98
870.05	1533.93
870.22	1615.85
870.39	1605.61
870.56	1603.56
870.73	1511.40
870.90	1763.30
871.07	1566.70
871.24	1683.43
871.41	1433.58
871.58	1560.55
871.74	1464.30
871.91	1613.80
872.08	1607.66
872.25	1437.67
872.42	1515.50
872.59	1472.49
872.76	1613.80
872.93	1705.96
873.10	1482.73
873.26	1544.17
873.43	1628.14
873.60	1574.89
873.77	1411.05
873.94	1501.16
874.11	1597.42
874.28	1693.67
874.45	1578.98
874.61	1503.21
874.78	1548.26
874.95	1447.91
875.12	1540.07
875.29	1648.61
875.46	1531.88
875.63	1628.14
875.79	1488.87
875.96	1546.22
876.13	1490.92
876.30	1413.10
876.47	1509.35
876.64	1617.90
876.80	1554.41
876.97	1495.02
877.14	1554.41
877.31	1535.98
877.48	1558.50
877.65	1628.14
877.81	1468.39
877.98	1462.25
878.15	1624.04
878.32	1552.36
878.49	1654.76
878.66	1599.46
878.82	1578.98
878.99	1613.80
879.16	1419.24
879.33	1427.43
879.50	1581.03
879.67	1505.26
879.83	1488.87
880.00	1374.19
880.17	1523.69
880.34	1548.26
880.51	1525.74
880.67	1515.50
880.84	1525.74
881.01	1624.04
881.18	1529.83
881.35	1511.40
881.51	1472.49
881.68	1615.85
881.85	1585.13
882.02	1413.10
882.18	1513.45
882.35	1529.83
882.52	1499.11
882.69	1501.16
882.86	1519.59
883.02	1482.73
883.19	1462.25
883.36	1601.51
883.53	1458.15
883.69	1480.68
883.86	1458.15
884.03	1521.64
884.20	1542.12
884.36	1452.01
884.53	1589.22
884.70	1431.53
884.87	1447.91
885.04	1660.90
885.20	1585.13
885.37	1433.58
885.54	1529.83
885.71	1564.65
885.87	1589.22
886.04	1366.00
886.21	1546.22
886.38	1556.46
886.54	1509.35
886.71	1486.83
886.88	1611.75
>>>>>End Processed Spectral Data<<<<<
