SpectraSuite Data File
++++++++++++++++++++++++++++++++++++
Date: Fri May 01 10:35:17 EST 2015
User: ocean
Dark Spectrum Present: No
Reference Spectrum Present: No
Number of Sampled Component Spectra: 1
Spectrometers: USB4E02642
Integration Time (usec): 150000 (USB4E02642)
Spectra Averaged: 1 (USB4E02642)
Boxcar Smoothing: 0 (USB4E02642)
Correct for Electrical Dark: No (USB4E02642)
Strobe/Lamp Enabled: No (USB4E02642)
Correct for Detector Non-linearity: No (USB4E02642)
Correct for Stray Light: No (USB4E02642)
Number of Pixels in Processed Spectrum: 3648
>>>>>Begin Processed Spectral Data<<<<<
179.22	1077.23
179.43	1077.23
179.65	1077.23
179.86	1032.18
180.08	1017.84
180.29	1349.61
180.51	1259.50
180.72	1339.37
180.94	1288.17
181.15	1179.63
181.37	1308.65
181.58	1177.58
181.80	1335.28
182.01	1322.99
182.23	1355.76
182.44	1388.52
182.66	1232.88
182.87	1226.73
183.09	1273.84
183.30	1239.02
183.52	1366.00
183.73	1306.60
183.95	1282.03
184.16	1390.57
184.38	1361.90
184.59	1316.84
184.81	1234.93
185.02	1298.41
185.24	1275.88
185.45	1392.62
185.67	1327.08
185.88	1341.42
186.10	1161.20
186.31	1214.45
186.53	1296.36
186.74	1265.64
186.96	1333.23
187.17	1322.99
187.39	1253.36
187.60	1222.64
187.81	1488.87
188.03	1386.47
188.24	1277.93
188.46	1333.23
188.67	1478.63
188.89	1329.13
189.10	1427.43
189.32	1322.99
189.53	1288.17
189.75	1392.62
189.96	1411.05
190.18	1259.50
190.39	1335.28
190.61	1282.03
190.82	1216.49
191.04	1398.76
191.25	1429.48
191.46	1355.76
191.68	1306.60
191.89	1355.76
192.11	1355.76
192.32	1325.04
192.54	1341.42
192.75	1208.30
192.97	1308.65
193.18	1370.09
193.40	1314.80
193.61	1417.19
193.83	1411.05
194.04	1325.04
194.25	1347.56
194.47	1347.56
194.68	1282.03
194.90	1185.77
195.11	1398.76
195.33	1343.47
195.54	1400.81
195.76	1384.43
195.97	1271.79
196.18	1392.62
196.40	1406.95
196.61	1325.04
196.83	1363.95
197.04	1228.78
197.26	1464.30
197.47	1363.95
197.69	1288.17
197.90	1331.18
198.11	1255.40
198.33	1261.55
198.54	1241.07
198.76	1443.82
198.97	1431.53
199.19	1331.18
199.40	1245.16
199.61	1241.07
199.83	1273.84
200.04	1306.60
200.26	1245.16
200.47	1366.00
200.69	1394.67
200.90	1376.24
201.11	1220.59
201.33	1232.88
201.54	1359.85
201.76	1419.24
201.97	1292.27
202.19	1331.18
202.40	1388.52
202.61	1327.08
202.83	1259.50
203.04	1273.84
203.26	1384.43
203.47	1370.09
203.68	1482.73
203.90	1349.61
204.11	1335.28
204.33	1269.74
204.54	1406.95
204.75	1376.24
204.97	1341.42
205.18	1253.36
205.40	1232.88
205.61	1284.08
205.83	1554.41
206.04	1261.55
206.25	1345.52
206.47	1439.72
206.68	1423.34
206.90	1310.70
207.11	1363.95
207.32	1187.82
207.54	1314.80
207.75	1345.52
207.97	1300.46
208.18	1306.60
208.39	1288.17
208.61	1239.02
208.82	1363.95
209.03	1329.13
209.25	1468.39
209.46	1404.91
209.68	1241.07
209.89	1314.80
210.10	1322.99
210.32	1331.18
210.53	1314.80
210.75	1427.43
210.96	1284.08
211.17	1390.57
211.39	1198.06
211.60	1214.45
211.82	1273.84
212.03	1415.15
212.24	1345.52
212.46	1363.95
212.67	1259.50
212.88	1236.97
213.10	1368.04
213.31	1355.76
213.53	1396.71
213.74	1376.24
213.95	1402.86
214.17	1378.28
214.38	1355.76
214.59	1314.80
214.81	1511.40
215.02	1312.75
215.23	1275.88
215.45	1239.02
215.66	1261.55
215.88	1361.90
216.09	1253.36
216.30	1325.04
216.52	1308.65
216.73	1239.02
216.94	1347.56
217.16	1398.76
217.37	1374.19
217.58	1314.80
217.80	1515.50
218.01	1320.94
218.22	1368.04
218.44	1263.60
218.65	1359.85
218.87	1288.17
219.08	1386.47
219.29	1351.66
219.51	1431.53
219.72	1347.56
219.93	1249.26
220.15	1433.58
220.36	1249.26
220.57	1413.10
220.79	1222.64
221.00	1230.83
221.21	1396.71
221.43	1415.15
221.64	1275.88
221.85	1361.90
222.07	1277.93
222.28	1402.86
222.49	1284.08
222.71	1269.74
222.92	1298.41
223.13	1179.63
223.35	1243.12
223.56	1390.57
223.77	1314.80
223.99	1308.65
224.20	1366.00
224.41	1300.46
224.63	1462.25
224.84	1251.31
225.05	1488.87
225.27	1435.63
225.48	1427.43
225.69	1279.98
225.91	1241.07
226.12	1359.85
226.33	1497.07
226.55	1236.97
226.76	1257.45
226.97	1290.22
227.19	1286.12
227.40	1296.36
227.61	1300.46
227.82	1329.13
228.04	1253.36
228.25	1261.55
228.46	1273.84
228.68	1413.10
228.89	1370.09
229.10	1275.88
229.32	1404.91
229.53	1357.80
229.74	1441.77
229.96	1308.65
230.17	1339.37
230.38	1454.06
230.59	1314.80
230.81	1325.04
231.02	1239.02
231.23	1279.98
231.45	1435.63
231.66	1322.99
231.87	1284.08
232.09	1353.71
232.30	1267.69
232.51	1378.28
232.72	1271.79
232.94	1222.64
233.15	1464.30
233.36	1255.40
233.58	1300.46
233.79	1241.07
234.00	1316.84
234.21	1357.80
234.43	1298.41
234.64	1306.60
234.85	1443.82
235.07	1316.84
235.28	1314.80
235.49	1284.08
235.70	1441.77
235.92	1335.28
236.13	1353.71
236.34	1443.82
236.56	1228.78
236.77	1212.40
236.98	1374.19
237.19	1366.00
237.41	1368.04
237.62	1355.76
237.83	1435.63
238.04	1402.86
238.26	1380.33
238.47	1388.52
238.68	1382.38
238.89	1318.89
239.11	1409.00
239.32	1345.52
239.53	1366.00
239.75	1284.08
239.96	1202.16
240.17	1296.36
240.38	1337.32
240.60	1302.51
240.81	1290.22
241.02	1339.37
241.23	1312.75
241.45	1427.43
241.66	1261.55
241.87	1380.33
242.08	1308.65
242.30	1204.21
242.51	1382.38
242.72	1273.84
242.93	1243.12
243.15	1318.89
243.36	1380.33
243.57	1218.54
243.78	1335.28
244.00	1378.28
244.21	1230.83
244.42	1347.56
244.63	1378.28
244.85	1351.66
245.06	1265.64
245.27	1419.24
245.48	1275.88
245.70	1372.14
245.91	1472.49
246.12	1163.25
246.33	1398.76
246.54	1404.91
246.76	1384.43
246.97	1302.51
247.18	1267.69
247.39	1206.25
247.61	1449.96
247.82	1337.32
248.03	1290.22
248.24	1372.14
248.45	1288.17
248.67	1310.70
248.88	1327.08
249.09	1263.60
249.30	1322.99
249.52	1413.10
249.73	1353.71
249.94	1300.46
250.15	1382.38
250.36	1325.04
250.58	1462.25
250.79	1366.00
251.00	1331.18
251.21	1466.35
251.43	1288.17
251.64	1429.48
251.85	1288.17
252.06	1333.23
252.27	1404.91
252.49	1341.42
252.70	1363.95
252.91	1234.93
253.12	1306.60
253.33	1376.24
253.55	1290.22
253.76	1279.98
253.97	1308.65
254.18	1355.76
254.39	1404.91
254.61	1253.36
254.82	1325.04
255.03	1404.91
255.24	1288.17
255.45	1406.95
255.67	1277.93
255.88	1353.71
256.09	1343.47
256.30	1279.98
256.51	1488.87
256.73	1392.62
256.94	1185.77
257.15	1406.95
257.36	1347.56
257.57	1312.75
257.78	1296.36
258.00	1327.08
258.21	1433.58
258.42	1271.79
258.63	1216.49
258.84	1329.13
259.06	1290.22
259.27	1396.71
259.48	1355.76
259.69	1374.19
259.90	1187.82
260.11	1308.65
260.33	1322.99
260.54	1320.94
260.75	1357.80
260.96	1378.28
261.17	1413.10
261.38	1404.91
261.60	1396.71
261.81	1357.80
262.02	1445.87
262.23	1310.70
262.44	1380.33
262.65	1361.90
262.87	1316.84
263.08	1316.84
263.29	1339.37
263.50	1363.95
263.71	1275.88
263.92	1312.75
264.13	1366.00
264.35	1302.51
264.56	1251.31
264.77	1361.90
264.98	1239.02
265.19	1204.21
265.40	1370.09
265.62	1398.76
265.83	1325.04
266.04	1386.47
266.25	1333.23
266.46	1366.00
266.67	1423.34
266.88	1423.34
267.10	1224.69
267.31	1333.23
267.52	1318.89
267.73	1269.74
267.94	1261.55
268.15	1290.22
268.36	1249.26
268.57	1390.57
268.79	1351.66
269.00	1353.71
269.21	1226.73
269.42	1343.47
269.63	1239.02
269.84	1251.31
270.05	1277.93
270.27	1304.56
270.48	1310.70
270.69	1210.35
270.90	1341.42
271.11	1363.95
271.32	1433.58
271.53	1294.32
271.74	1241.07
271.96	1376.24
272.17	1261.55
272.38	1343.47
272.59	1232.88
272.80	1292.27
273.01	1345.52
273.22	1288.17
273.43	1320.94
273.64	1220.59
273.86	1452.01
274.07	1337.32
274.28	1267.69
274.49	1368.04
274.70	1255.40
274.91	1382.38
275.12	1400.81
275.33	1279.98
275.54	1345.52
275.76	1325.04
275.97	1327.08
276.18	1349.61
276.39	1249.26
276.60	1269.74
276.81	1296.36
277.02	1234.93
277.23	1353.71
277.44	1298.41
277.65	1308.65
277.86	1304.56
278.08	1370.09
278.29	1406.95
278.50	1374.19
278.71	1316.84
278.92	1232.88
279.13	1275.88
279.34	1308.65
279.55	1288.17
279.76	1439.72
279.97	1257.45
280.18	1476.59
280.40	1355.76
280.61	1224.69
280.82	1300.46
281.03	1222.64
281.24	1390.57
281.45	1271.79
281.66	1243.12
281.87	1286.12
282.08	1251.31
282.29	1339.37
282.50	1286.12
282.71	1200.11
282.92	1513.45
283.13	1390.57
283.35	1355.76
283.56	1327.08
283.77	1204.21
283.98	1363.95
284.19	1320.94
284.40	1226.73
284.61	1290.22
284.82	1390.57
285.03	1378.28
285.24	1257.45
285.45	1226.73
285.66	1267.69
285.87	1320.94
286.08	1241.07
286.29	1357.80
286.50	1308.65
286.71	1214.45
286.93	1267.69
287.14	1337.32
287.35	1329.13
287.56	1316.84
287.77	1388.52
287.98	1322.99
288.19	1363.95
288.40	1296.36
288.61	1294.32
288.82	1302.51
289.03	1423.34
289.24	1388.52
289.45	1427.43
289.66	1386.47
289.87	1415.15
290.08	1284.08
290.29	1257.45
290.50	1259.50
290.71	1269.74
290.92	1484.78
291.13	1265.64
291.34	1384.43
291.55	1273.84
291.76	1343.47
291.97	1271.79
292.18	1216.49
292.39	1357.80
292.61	1337.32
292.82	1224.69
293.03	1501.16
293.24	1230.83
293.45	1210.35
293.66	1282.03
293.87	1288.17
294.08	1275.88
294.29	1279.98
294.50	1400.81
294.71	1380.33
294.92	1245.16
295.13	1433.58
295.34	1292.27
295.55	1247.21
295.76	1355.76
295.97	1445.87
296.18	1419.24
296.39	1314.80
296.60	1490.92
296.81	1243.12
297.02	1245.16
297.23	1466.35
297.44	1374.19
297.65	1329.13
297.86	1296.36
298.07	1165.29
298.28	1396.71
298.49	1210.35
298.70	1247.21
298.91	1325.04
299.12	1220.59
299.33	1204.21
299.54	1363.95
299.75	1318.89
299.96	1327.08
300.17	1366.00
300.38	1251.31
300.59	1271.79
300.80	1376.24
301.01	1304.56
301.22	1314.80
301.43	1304.56
301.64	1247.21
301.85	1236.97
302.06	1386.47
302.27	1327.08
302.48	1595.37
302.69	1243.12
302.89	1325.04
303.10	1314.80
303.31	1271.79
303.52	1327.08
303.73	1241.07
303.94	1294.32
304.15	1279.98
304.36	1204.21
304.57	1241.07
304.78	1337.32
304.99	1284.08
305.20	1239.02
305.41	1472.49
305.62	1396.71
305.83	1310.70
306.04	1183.73
306.25	1341.42
306.46	1302.51
306.67	1351.66
306.88	1374.19
307.09	1275.88
307.30	1343.47
307.51	1413.10
307.72	1400.81
307.93	1185.77
308.14	1298.41
308.35	1388.52
308.55	1312.75
308.76	1294.32
308.97	1259.50
309.18	1396.71
309.39	1415.15
309.60	1284.08
309.81	1390.57
310.02	1249.26
310.23	1214.45
310.44	1286.12
310.65	1277.93
310.86	1271.79
311.07	1429.48
311.28	1349.61
311.49	1294.32
311.70	1329.13
311.91	1304.56
312.11	1300.46
312.32	1245.16
312.53	1216.49
312.74	1271.79
312.95	1234.93
313.16	1452.01
313.37	1366.00
313.58	1310.70
313.79	1202.16
314.00	1273.84
314.21	1183.73
314.42	1263.60
314.63	1275.88
314.83	1333.23
315.04	1363.95
315.25	1376.24
315.46	1439.72
315.67	1333.23
315.88	1310.70
316.09	1357.80
316.30	1279.98
316.51	1239.02
316.72	1298.41
316.93	1173.49
317.13	1384.43
317.34	1263.60
317.55	1456.11
317.76	1267.69
317.97	1306.60
318.18	1363.95
318.39	1388.52
318.60	1390.57
318.81	1226.73
319.02	1378.28
319.23	1372.14
319.43	1458.15
319.64	1329.13
319.85	1292.27
320.06	1396.71
320.27	1251.31
320.48	1327.08
320.69	1372.14
320.90	1241.07
321.11	1382.38
321.31	1314.80
321.52	1366.00
321.73	1398.76
321.94	1333.23
322.15	1247.21
322.36	1476.59
322.57	1449.96
322.78	1271.79
322.98	1318.89
323.19	1343.47
323.40	1259.50
323.61	1320.94
323.82	1249.26
324.03	1202.16
324.24	1466.35
324.45	1386.47
324.65	1251.31
324.86	1339.37
325.07	1359.85
325.28	1331.18
325.49	1363.95
325.70	1300.46
325.91	1355.76
326.12	1271.79
326.32	1298.41
326.53	1263.60
326.74	1239.02
326.95	1406.95
327.16	1345.52
327.37	1320.94
327.58	1275.88
327.78	1228.78
327.99	1245.16
328.20	1261.55
328.41	1265.64
328.62	1316.84
328.83	1398.76
329.04	1253.36
329.24	1308.65
329.45	1193.97
329.66	1316.84
329.87	1409.00
330.08	1294.32
330.29	1298.41
330.49	1398.76
330.70	1210.35
330.91	1275.88
331.12	1329.13
331.33	1343.47
331.54	1325.04
331.74	1265.64
331.95	1279.98
332.16	1329.13
332.37	1249.26
332.58	1335.28
332.79	1308.65
332.99	1300.46
333.20	1402.86
333.41	1255.40
333.62	1392.62
333.83	1347.56
334.04	1253.36
334.24	1361.90
334.45	1228.78
334.66	1351.66
334.87	1325.04
335.08	1251.31
335.29	1265.64
335.49	1304.56
335.70	1351.66
335.91	1345.52
336.12	1421.29
336.33	1208.30
336.53	1304.56
336.74	1277.93
336.95	1327.08
337.16	1177.58
337.37	1312.75
337.57	1218.54
337.78	1312.75
337.99	1282.03
338.20	1341.42
338.41	1345.52
338.62	1269.74
338.82	1374.19
339.03	1398.76
339.24	1320.94
339.45	1322.99
339.65	1277.93
339.86	1404.91
340.07	1382.38
340.28	1320.94
340.49	1390.57
340.69	1269.74
340.90	1390.57
341.11	1355.76
341.32	1372.14
341.53	1142.77
341.73	1292.27
341.94	1275.88
342.15	1312.75
342.36	1359.85
342.57	1523.69
342.77	1230.83
342.98	1341.42
343.19	1298.41
343.40	1290.22
343.60	1292.27
343.81	1316.84
344.02	1292.27
344.23	1400.81
344.44	1193.97
344.64	1316.84
344.85	1351.66
345.06	1306.60
345.27	1263.60
345.47	1257.45
345.68	1228.78
345.89	1335.28
346.10	1423.34
346.30	1349.61
346.51	1390.57
346.72	1462.25
346.93	1404.91
347.13	1247.21
347.34	1400.81
347.55	1294.32
347.76	1241.07
347.97	1394.67
348.17	1306.60
348.38	1349.61
348.59	1218.54
348.80	1353.71
349.00	1306.60
349.21	1302.51
349.42	1378.28
349.63	1394.67
349.83	1214.45
350.04	1253.36
350.25	1308.65
350.45	1286.12
350.66	1269.74
350.87	1361.90
351.08	1263.60
351.28	1363.95
351.49	1322.99
351.70	1398.76
351.91	1216.49
352.11	1308.65
352.32	1320.94
352.53	1331.18
352.74	1263.60
352.94	1380.33
353.15	1320.94
353.36	1306.60
353.56	1257.45
353.77	1349.61
353.98	1320.94
354.19	1284.08
354.39	1241.07
354.60	1239.02
354.81	1306.60
355.02	1300.46
355.22	1372.14
355.43	1372.14
355.64	1247.21
355.84	1345.52
356.05	1255.40
356.26	1404.91
356.47	1337.32
356.67	1361.90
356.88	1302.51
357.09	1269.74
357.29	1298.41
357.50	1476.59
357.71	1372.14
357.92	1347.56
358.12	1312.75
358.33	1316.84
358.54	1284.08
358.74	1435.63
358.95	1292.27
359.16	1341.42
359.36	1159.15
359.57	1343.47
359.78	1400.81
359.98	1263.60
360.19	1288.17
360.40	1314.80
360.61	1427.43
360.81	1259.50
361.02	1204.21
361.23	1243.12
361.43	1302.51
361.64	1290.22
361.85	1454.06
362.05	1339.37
362.26	1271.79
362.47	1355.76
362.67	1273.84
362.88	1333.23
363.09	1251.31
363.29	1273.84
363.50	1257.45
363.71	1308.65
363.91	1290.22
364.12	1390.57
364.33	1243.12
364.53	1284.08
364.74	1302.51
364.95	1290.22
365.15	1230.83
365.36	1226.73
365.57	1411.05
365.77	1245.16
365.98	1308.65
366.19	1394.67
366.39	1282.03
366.60	1363.95
366.81	1255.40
367.01	1396.71
367.22	1312.75
367.43	1482.73
367.63	1331.18
367.84	1341.42
368.05	1318.89
368.25	1316.84
368.46	1378.28
368.67	1310.70
368.87	1320.94
369.08	1286.12
369.29	1232.88
369.49	1265.64
369.70	1343.47
369.91	1353.71
370.11	1331.18
370.32	1259.50
370.52	1370.09
370.73	1363.95
370.94	1286.12
371.14	1335.28
371.35	1294.32
371.56	1331.18
371.76	1353.71
371.97	1495.02
372.18	1226.73
372.38	1185.77
372.59	1392.62
372.79	1368.04
373.00	1230.83
373.21	1357.80
373.41	1279.98
373.62	1224.69
373.83	1265.64
374.03	1290.22
374.24	1306.60
374.44	1318.89
374.65	1353.71
374.86	1214.45
375.06	1325.04
375.27	1300.46
375.47	1316.84
375.68	1288.17
375.89	1351.66
376.09	1400.81
376.30	1286.12
376.50	1316.84
376.71	1413.10
376.92	1298.41
377.12	1378.28
377.33	1374.19
377.54	1347.56
377.74	1333.23
377.95	1406.95
378.15	1290.22
378.36	1271.79
378.57	1425.39
378.77	1462.25
378.98	1259.50
379.18	1302.51
379.39	1335.28
379.59	1232.88
379.80	1255.40
380.01	1292.27
380.21	1478.63
380.42	1302.51
380.62	1439.72
380.83	1175.53
381.04	1304.56
381.24	1306.60
381.45	1374.19
381.65	1357.80
381.86	1265.64
382.06	1460.20
382.27	1304.56
382.48	1245.16
382.68	1402.86
382.89	1320.94
383.09	1421.29
383.30	1302.51
383.51	1392.62
383.71	1472.49
383.92	1198.06
384.12	1273.84
384.33	1333.23
384.53	1318.89
384.74	1335.28
384.94	1345.52
385.15	1306.60
385.36	1357.80
385.56	1314.80
385.77	1277.93
385.97	1259.50
386.18	1226.73
386.38	1255.40
386.59	1277.93
386.79	1292.27
387.00	1304.56
387.21	1355.76
387.41	1423.34
387.62	1400.81
387.82	1298.41
388.03	1316.84
388.23	1312.75
388.44	1306.60
388.64	1322.99
388.85	1390.57
389.06	1263.60
389.26	1363.95
389.47	1261.55
389.67	1241.07
389.88	1402.86
390.08	1269.74
390.29	1380.33
390.49	1372.14
390.70	1427.43
390.90	1310.70
391.11	1251.31
391.31	1269.74
391.52	1236.97
391.72	1435.63
391.93	1284.08
392.13	1329.13
392.34	1189.87
392.55	1275.88
392.75	1286.12
392.96	1265.64
393.16	1359.85
393.37	1308.65
393.57	1273.84
393.78	1312.75
393.98	1359.85
394.19	1415.15
394.39	1308.65
394.60	1406.95
394.80	1271.79
395.01	1349.61
395.21	1454.06
395.42	1300.46
395.62	1255.40
395.83	1275.88
396.03	1343.47
396.24	1454.06
396.44	1341.42
396.65	1363.95
396.85	1361.90
397.06	1308.65
397.26	1253.36
397.47	1325.04
397.67	1445.87
397.88	1288.17
398.08	1284.08
398.29	1343.47
398.49	1329.13
398.70	1390.57
398.90	1230.83
399.11	1345.52
399.31	1419.24
399.52	1222.64
399.72	1384.43
399.93	1357.80
400.13	1208.30
400.34	1275.88
400.54	1372.14
400.75	1318.89
400.95	1372.14
401.15	1406.95
401.36	1314.80
401.56	1322.99
401.77	1345.52
401.97	1271.79
402.18	1298.41
402.38	1284.08
402.59	1275.88
402.79	1249.26
403.00	1273.84
403.20	1333.23
403.41	1288.17
403.61	1308.65
403.82	1359.85
404.02	1316.84
404.22	1345.52
404.43	1366.00
404.63	1302.51
404.84	1320.94
405.04	1290.22
405.25	1308.65
405.45	1277.93
405.66	1302.51
405.86	1312.75
406.07	1390.57
406.27	1353.71
406.47	1232.88
406.68	1245.16
406.88	1341.42
407.09	1306.60
407.29	1345.52
407.50	1263.60
407.70	1284.08
407.91	1249.26
408.11	1378.28
408.31	1306.60
408.52	1378.28
408.72	1255.40
408.93	1275.88
409.13	1306.60
409.34	1466.35
409.54	1294.32
409.74	1406.95
409.95	1218.54
410.15	1273.84
410.36	1339.37
410.56	1290.22
410.77	1447.91
410.97	1241.07
411.17	1380.33
411.38	1343.47
411.58	1312.75
411.79	1275.88
411.99	1339.37
412.19	1363.95
412.40	1351.66
412.60	1484.78
412.81	1327.08
413.01	1421.29
413.22	1343.47
413.42	1339.37
413.62	1253.36
413.83	1421.29
414.03	1279.98
414.24	1353.71
414.44	1370.09
414.64	1316.84
414.85	1277.93
415.05	1482.73
415.26	1347.56
415.46	1292.27
415.66	1347.56
415.87	1376.24
416.07	1390.57
416.28	1343.47
416.48	1384.43
416.68	1431.53
416.89	1466.35
417.09	1439.72
417.29	1302.51
417.50	1349.61
417.70	1339.37
417.91	1316.84
418.11	1259.50
418.31	1327.08
418.52	1284.08
418.72	1363.95
418.93	1333.23
419.13	1322.99
419.33	1402.86
419.54	1419.24
419.74	1329.13
419.94	1388.52
420.15	1443.82
420.35	1325.04
420.56	1437.67
420.76	1460.20
420.96	1275.88
421.17	1337.32
421.37	1310.70
421.57	1378.28
421.78	1415.15
421.98	1361.90
422.18	1470.44
422.39	1460.20
422.59	1353.71
422.80	1382.38
423.00	1347.56
423.20	1400.81
423.41	1320.94
423.61	1368.04
423.81	1361.90
424.02	1400.81
424.22	1460.20
424.42	1443.82
424.63	1474.54
424.83	1411.05
425.03	1423.34
425.24	1495.02
425.44	1382.38
425.64	1417.19
425.85	1423.34
426.05	1409.00
426.25	1411.05
426.46	1378.28
426.66	1402.86
426.86	1517.54
427.07	1480.68
427.27	1402.86
427.47	1724.39
427.68	1406.95
427.88	1527.78
428.08	1585.13
428.29	1310.70
428.49	1390.57
428.69	1548.26
428.90	1374.19
429.10	1499.11
429.30	1505.26
429.51	1435.63
429.71	1454.06
429.91	1341.42
430.12	1458.15
430.32	1593.32
430.52	1372.14
430.72	1363.95
430.93	1456.11
431.13	1386.47
431.33	1415.15
431.54	1460.20
431.74	1435.63
431.94	1415.15
432.15	1431.53
432.35	1490.92
432.55	1366.00
432.76	1431.53
432.96	1394.67
433.16	1427.43
433.36	1511.40
433.57	1406.95
433.77	1560.55
433.97	1431.53
434.18	1488.87
434.38	1419.24
434.58	1470.44
434.78	1443.82
434.99	1497.07
435.19	1544.17
435.39	1396.71
435.60	1509.35
435.80	1652.71
436.00	1443.82
436.20	1384.43
436.41	1458.15
436.61	1505.26
436.81	1394.67
437.02	1490.92
437.22	1429.48
437.42	1460.20
437.62	1470.44
437.83	1628.14
438.03	1472.49
438.23	1439.72
438.43	1507.30
438.64	1554.41
438.84	1437.67
439.04	1474.54
439.25	1544.17
439.45	1564.65
439.65	1427.43
439.85	1521.64
440.06	1562.60
440.26	1505.26
440.46	1605.61
440.66	1538.02
440.87	1540.07
441.07	1490.92
441.27	1497.07
441.47	1406.95
441.68	1566.70
441.88	1540.07
442.08	1529.83
442.28	1538.02
442.49	1529.83
442.69	1701.86
442.89	1550.31
443.09	1509.35
443.30	1466.35
443.50	1581.03
443.70	1505.26
443.90	1486.83
444.10	1644.52
444.31	1619.94
444.51	1419.24
444.71	1468.39
444.91	1458.15
445.12	1570.79
445.32	1781.73
445.52	1505.26
445.72	1490.92
445.93	1480.68
446.13	1488.87
446.33	1568.74
446.53	1595.37
446.73	1462.25
446.94	1447.91
447.14	1476.59
447.34	1478.63
447.54	1607.66
447.74	1445.87
447.95	1497.07
448.15	1503.21
448.35	1597.42
448.55	1499.11
448.76	1503.21
448.96	1609.70
449.16	1447.91
449.36	1517.54
449.56	1480.68
449.77	1564.65
449.97	1642.47
450.17	1398.76
450.37	1470.44
450.57	1574.89
450.78	1593.32
450.98	1533.93
451.18	1462.25
451.38	1460.20
451.58	1505.26
451.79	1372.14
451.99	1581.03
452.19	1554.41
452.39	1665.00
452.59	1605.61
452.79	1552.36
453.00	1517.54
453.20	1576.94
453.40	1501.16
453.60	1644.52
453.80	1628.14
454.01	1634.28
454.21	1521.64
454.41	1472.49
454.61	1609.70
454.81	1697.77
455.01	1544.17
455.22	1564.65
455.42	1669.09
455.62	1808.36
455.82	1525.74
456.02	1527.78
456.22	1529.83
456.43	1652.71
456.63	1507.30
456.83	1550.31
457.03	1595.37
457.23	1581.03
457.43	1636.33
457.64	1609.70
457.84	1540.07
458.04	1546.22
458.24	1523.69
458.44	1660.90
458.64	1517.54
458.84	1669.09
459.05	1558.50
459.25	1638.38
459.45	1628.14
459.65	1599.46
459.85	1597.42
460.05	1519.59
460.25	1587.18
460.46	1783.78
460.66	1693.67
460.86	1576.94
461.06	1681.38
461.26	1613.80
461.46	1662.95
461.66	1624.04
461.87	1759.21
462.07	1644.52
462.27	1683.43
462.47	1679.33
462.67	1679.33
462.87	1720.29
463.07	1589.22
463.27	1748.97
463.48	1540.07
463.68	1669.09
463.88	1665.00
464.08	1660.90
464.28	1675.24
464.48	1609.70
464.68	1726.44
464.88	1677.29
465.08	1667.05
465.29	1693.67
465.49	1646.57
465.69	1751.01
465.89	1765.35
466.09	1738.73
466.29	1710.05
466.49	1783.78
466.69	1693.67
466.89	1675.24
467.10	1837.03
467.30	1736.68
467.50	1894.37
467.70	1691.62
467.90	1746.92
468.10	1796.07
468.30	1677.29
468.50	1822.69
468.70	1755.11
468.90	1687.53
469.10	1746.92
469.31	1837.03
469.51	1785.83
469.71	1730.53
469.91	1824.74
470.11	1824.74
470.31	1785.83
470.51	1861.60
470.71	1841.12
470.91	1849.32
471.11	1783.78
471.31	1712.10
471.51	1927.14
471.71	1787.88
471.92	1789.92
472.12	1796.07
472.32	1847.27
472.52	1900.52
472.72	1738.73
472.92	1812.45
473.12	1947.62
473.32	1880.04
473.52	1968.10
473.72	2056.16
473.92	1904.61
474.12	1968.10
474.32	1845.22
474.52	2004.96
474.72	1927.14
474.92	1953.76
475.13	2029.54
475.33	1988.58
475.53	1964.00
475.73	2183.13
475.93	2054.11
476.13	2052.06
476.33	2119.65
476.53	2148.32
476.73	2101.22
476.93	2203.61
477.13	2258.91
477.33	2234.33
477.53	2232.29
477.73	2439.13
477.93	2222.05
478.13	2529.24
478.33	2510.81
478.53	2432.99
478.73	2467.80
478.93	2428.89
479.13	2455.51
479.33	2465.75
479.53	2762.71
479.73	2721.75
479.93	2660.31
480.13	2785.24
480.33	2875.35
480.53	2762.71
480.73	2848.72
480.93	3037.14
481.13	2926.55
481.34	2994.13
481.54	3250.13
481.74	3196.88
481.94	3225.55
482.14	3532.75
482.34	3479.50
482.54	3483.59
482.74	3602.38
482.94	3852.23
483.14	3831.75
483.34	3796.93
483.54	4046.79
483.74	4200.38
483.94	4110.27
484.14	4224.96
484.34	4392.89
484.54	4464.57
484.74	4865.97
484.94	4898.74
485.14	5005.24
485.34	5318.57
485.54	5345.20
485.74	5773.22
485.93	5853.09
486.13	6064.04
486.33	6131.62
486.53	6393.76
486.73	6799.26
486.93	6854.55
487.13	7094.16
487.33	7464.85
487.53	7550.86
487.73	8073.09
487.93	8370.05
488.13	8789.88
488.33	9037.69
488.53	9545.58
488.73	9762.67
488.93	10164.07
489.13	10530.66
489.33	11345.75
489.53	11509.58
489.73	11923.27
489.93	12556.10
490.13	12808.00
490.33	13655.86
490.53	13991.72
490.73	14538.53
490.93	15058.71
491.13	15785.74
491.33	16451.33
491.53	17108.73
491.73	17526.52
491.93	18077.42
492.12	18708.19
492.32	19330.78
492.52	20178.64
492.72	20616.90
492.92	21116.61
493.12	21698.23
493.32	22204.08
493.52	22527.66
493.72	23096.99
493.92	23553.69
494.12	24198.80
494.32	24549.00
494.52	25104.00
494.72	25560.70
494.92	25699.96
495.12	26025.59
495.31	26351.21
495.51	26822.25
495.71	27123.30
495.91	27534.94
496.11	27340.38
496.31	27862.61
496.51	28018.26
496.71	27545.18
496.91	27809.37
497.11	28024.40
497.31	27354.72
497.51	27731.54
497.71	27225.70
497.90	27223.65
498.10	27135.59
498.30	26746.47
498.50	26257.01
498.70	25970.29
498.90	25796.21
499.10	25196.16
499.30	24929.92
499.50	24475.27
499.70	23629.46
499.89	23322.27
500.09	22675.11
500.29	22044.34
500.49	21587.64
500.69	21219.00
500.89	20403.91
501.09	19445.46
501.29	18990.81
501.49	18462.44
501.69	17727.22
501.88	17041.15
502.08	16412.42
502.28	16004.88
502.48	15163.16
502.68	14645.02
502.88	14065.45
503.08	13246.26
503.28	12920.63
503.47	12052.30
503.67	11685.71
503.87	11034.46
504.07	10393.44
504.27	10082.15
504.47	9518.96
504.67	9152.37
504.87	8384.38
505.06	8003.46
505.26	7671.69
505.46	7096.21
505.66	6903.70
505.86	6436.77
506.06	6412.19
506.26	5844.90
506.45	5625.77
506.65	5466.03
506.85	5066.67
507.05	4806.58
507.25	4571.07
507.45	4429.76
507.65	4368.32
507.84	4093.89
508.04	3977.16
508.24	3618.76
508.44	3864.52
508.64	3604.42
508.84	3422.16
509.04	3456.97
509.23	3432.40
509.43	3403.72
509.63	3141.58
509.83	3071.95
510.03	3176.40
510.23	2981.84
510.42	2996.18
510.62	3086.29
510.82	3012.56
511.02	3123.15
511.22	2998.23
511.42	2899.92
511.61	2961.36
511.81	3018.71
512.01	2883.54
512.21	2869.20
512.41	2936.79
512.60	2875.35
512.80	2930.64
513.00	3000.27
513.20	2854.87
513.40	2822.10
513.60	2963.41
513.79	2807.77
513.99	2887.64
514.19	2985.94
514.39	2869.20
514.59	2953.17
514.78	2969.55
514.98	2922.45
515.18	2861.01
515.38	3002.32
515.58	3008.47
515.77	2899.92
515.97	2828.24
516.17	3020.75
516.37	3088.34
516.57	2947.03
516.76	3074.00
516.96	3012.56
517.16	3002.32
517.36	2889.68
517.56	2897.88
517.75	2914.26
517.95	2985.94
518.15	2924.50
518.35	2918.36
518.55	2973.65
518.74	3088.34
518.94	2830.29
519.14	2836.44
519.34	3051.47
519.53	3012.56
519.73	3057.62
519.93	2981.84
520.13	3162.06
520.32	2918.36
520.52	3045.33
520.72	3207.12
520.92	3223.50
521.12	3061.71
521.31	3117.01
521.51	2983.89
521.71	2965.46
521.91	3043.28
522.10	3020.75
522.30	3020.75
522.50	3014.61
522.70	3209.17
522.89	3010.51
523.09	3063.76
523.29	3045.33
523.49	3258.32
523.68	3203.02
523.88	2979.79
524.08	3164.11
524.28	3186.64
524.47	3221.45
524.67	3188.69
524.87	3033.04
525.07	3246.03
525.26	3170.26
525.46	3225.55
525.66	3264.46
525.86	3209.17
526.05	3182.54
526.25	3168.21
526.45	3078.10
526.64	3131.34
526.84	3117.01
527.04	3229.65
527.24	3258.32
527.43	3198.93
527.63	3135.44
527.83	3313.61
528.03	3143.63
528.22	3330.00
528.42	3270.61
528.62	3358.67
528.81	3209.17
529.01	3278.80
529.21	3215.31
529.41	3239.89
529.60	3248.08
529.80	3270.61
530.00	3239.89
530.19	3194.83
530.39	3223.50
530.59	3282.89
530.79	3067.86
530.98	3160.02
531.18	3100.62
531.38	3069.91
531.57	3223.50
531.77	3117.01
531.97	3209.17
532.16	3219.41
532.36	3262.41
532.56	3205.07
532.76	3325.90
532.95	3395.53
533.15	3336.14
533.35	3190.74
533.54	3332.05
533.74	3291.09
533.94	3368.91
534.13	3112.91
534.33	3428.30
534.53	3211.22
534.72	3379.15
534.92	3317.71
535.12	3307.47
535.31	3192.78
535.51	3217.36
535.71	3241.93
535.90	3418.06
536.10	3284.94
536.30	3280.85
536.49	3307.47
536.69	3295.18
536.89	3215.31
537.08	3303.37
537.28	3215.31
537.48	3360.72
537.67	3264.46
537.87	3262.41
538.07	3373.00
538.26	3147.73
538.46	3256.27
538.66	3219.41
538.85	3289.04
539.05	3508.17
539.25	3192.78
539.44	3342.28
539.64	3254.22
539.84	3469.26
540.03	3264.46
540.23	3454.92
540.42	3311.57
540.62	3524.55
540.82	3323.85
541.01	3315.66
541.21	3366.86
541.41	3217.36
541.60	3262.41
541.80	3504.07
542.00	3192.78
542.19	3401.68
542.39	3307.47
542.58	3368.91
542.78	3215.31
542.98	3338.19
543.17	3295.18
543.37	3282.89
543.57	3248.08
543.76	3407.82
543.96	3397.58
544.15	3383.24
544.35	3356.62
544.55	3311.57
544.74	3299.28
544.94	3448.78
545.13	3315.66
545.33	3456.97
545.53	3250.13
545.72	3373.00
545.92	3358.67
546.11	3485.64
546.31	3370.96
546.51	3352.52
546.70	3436.49
546.90	3438.54
547.09	3299.28
547.29	3237.84
547.49	3405.77
547.68	3401.68
547.88	3413.96
548.07	3352.52
548.27	3450.83
548.47	3385.29
548.66	3542.99
548.86	3495.88
549.05	3377.10
549.25	3262.41
549.45	3354.57
549.64	3383.24
549.84	3563.47
550.03	3454.92
550.23	3465.16
550.42	3356.62
550.62	3393.48
550.82	3303.37
551.01	3454.92
551.21	3321.81
551.40	3409.87
551.60	3280.85
551.79	3397.58
551.99	3583.95
552.19	3286.99
552.38	3366.86
552.58	3512.27
552.77	3315.66
552.97	3399.63
553.16	3506.12
553.36	3452.88
553.55	3393.48
553.75	3436.49
553.95	3434.44
554.14	3520.46
554.34	3375.05
554.53	3504.07
554.73	3542.99
554.92	3387.34
555.12	3420.11
555.31	3426.25
555.51	3424.20
555.70	3592.14
555.90	3426.25
556.09	3336.14
556.29	3416.01
556.49	3481.55
556.68	3473.36
556.88	3504.07
557.07	3418.06
557.27	3436.49
557.46	3438.54
557.66	3422.16
557.85	3481.55
558.05	3594.19
558.24	3456.97
558.44	3395.53
558.63	3483.59
558.83	3448.78
559.02	3409.87
559.22	3485.64
559.41	3467.21
559.61	3594.19
559.80	3571.66
560.00	3399.63
560.19	3504.07
560.39	3444.68
560.58	3641.29
560.78	3438.54
560.97	3563.47
561.17	3434.44
561.36	3620.81
561.56	3489.74
561.75	3559.37
561.95	3565.51
562.14	3520.46
562.34	3491.79
562.53	3524.55
562.73	3524.55
562.92	3524.55
563.12	3477.45
563.31	3604.42
563.51	3444.68
563.70	3614.66
563.90	3524.55
564.09	3491.79
564.29	3497.93
564.48	3549.13
564.68	3504.07
564.87	3694.54
565.07	3643.34
565.26	3614.66
565.46	3487.69
565.65	3440.59
565.85	3461.07
566.04	3373.00
566.24	3618.76
566.43	3477.45
566.63	3510.22
566.82	3495.88
567.01	3428.30
567.21	3545.03
567.40	3542.99
567.60	3489.74
567.79	3629.00
567.99	3463.12
568.18	3553.23
568.38	3631.05
568.57	3598.28
568.77	3499.98
568.96	3606.47
569.15	3473.36
569.35	3483.59
569.54	3774.41
569.74	3565.51
569.93	3446.73
570.13	3600.33
570.32	3540.94
570.52	3663.82
570.71	3661.77
570.90	3499.98
571.10	3629.00
571.29	3491.79
571.49	3356.62
571.68	3631.05
571.88	3598.28
572.07	3590.09
572.26	3565.51
572.46	3442.64
572.65	3540.94
572.85	3637.19
573.04	3538.89
573.24	3499.98
573.43	3622.86
573.62	3667.91
573.82	3538.89
574.01	3424.20
574.21	3532.75
574.40	3616.71
574.59	3614.66
574.79	3596.23
574.98	3667.91
575.18	3493.83
575.37	3682.25
575.56	3520.46
575.76	3440.59
575.95	3626.95
576.15	3629.00
576.34	3516.36
576.53	3567.56
576.73	3700.68
576.92	3506.12
577.12	3473.36
577.31	3667.91
577.50	3540.94
577.70	3495.88
577.89	3575.75
578.09	3665.86
578.28	3461.07
578.47	3504.07
578.67	3766.21
578.86	3678.15
579.06	3504.07
579.25	3588.04
579.44	3493.83
579.64	3753.93
579.83	3563.47
580.02	3626.95
580.22	3514.31
580.41	3772.36
580.61	3672.01
580.80	3624.90
580.99	3633.10
581.19	3684.30
581.38	3674.06
581.57	3536.84
581.77	3645.38
581.96	3520.46
582.15	3657.67
582.35	3618.76
582.54	3588.04
582.73	3637.19
582.93	3454.92
583.12	3651.53
583.32	3549.13
583.51	3555.27
583.70	3663.82
583.90	3729.35
584.09	3598.28
584.28	3657.67
584.48	3633.10
584.67	3598.28
584.86	3551.18
585.06	3657.67
585.25	3581.90
585.44	3596.23
585.64	3600.33
585.83	3624.90
586.02	3631.05
586.22	3575.75
586.41	3563.47
586.60	3622.86
586.80	3629.00
586.99	3651.53
587.18	3682.25
587.38	3651.53
587.57	3717.06
587.76	3669.96
587.96	3641.29
588.15	3774.41
588.34	3479.50
588.53	3604.42
588.73	3563.47
588.92	3493.83
589.11	3766.21
589.31	3665.86
589.50	3755.97
589.69	3657.67
589.89	3698.63
590.08	3663.82
590.27	3495.88
590.47	3657.67
590.66	3579.85
590.85	3680.20
591.04	3497.93
591.24	3698.63
591.43	3672.01
591.62	3655.62
591.82	3629.00
592.01	3688.39
592.20	3729.35
592.39	3880.90
592.59	3696.58
592.78	3629.00
592.97	3538.89
593.17	3553.23
593.36	3547.08
593.55	3741.64
593.74	3555.27
593.94	3708.87
594.13	3567.56
594.32	3606.47
594.52	3737.54
594.71	3663.82
594.90	3663.82
595.09	3659.72
595.29	3594.19
595.48	3733.45
595.67	3631.05
595.86	3463.12
596.06	3657.67
596.25	3606.47
596.44	3717.06
596.63	3518.41
596.83	3577.80
597.02	3614.66
597.21	3618.76
597.40	3719.11
597.60	3663.82
597.79	3669.96
597.98	3540.94
598.17	3739.59
598.37	3731.40
598.56	3665.86
598.75	3583.95
598.94	3827.65
599.14	3540.94
599.33	3651.53
599.52	3594.19
599.71	3672.01
599.91	3819.46
600.10	3692.49
600.29	3690.44
600.48	3770.31
600.68	3727.30
600.87	3622.86
601.06	3663.82
601.25	3704.78
601.44	3538.89
601.64	3717.06
601.83	3825.61
602.02	3612.62
602.21	3780.55
602.41	3702.73
602.60	3727.30
602.79	3626.95
602.98	3841.99
603.17	3598.28
603.37	3712.97
603.56	3647.43
603.75	3649.48
603.94	3663.82
604.13	3717.06
604.33	3735.50
604.52	3717.06
604.71	3592.14
604.90	3547.08
605.09	3702.73
605.29	3768.26
605.48	3774.41
605.67	3639.24
605.86	3821.51
606.05	3844.04
606.25	3657.67
606.44	3631.05
606.63	3751.88
606.82	3758.02
607.01	3674.06
607.20	3626.95
607.40	3727.30
607.59	3823.56
607.78	3747.78
607.97	3690.44
608.16	3739.59
608.36	3829.70
608.55	3510.22
608.74	3680.20
608.93	3948.48
609.12	3796.93
609.31	3665.86
609.51	3813.32
609.70	3749.83
609.89	3680.20
610.08	3672.01
610.27	3618.76
610.46	3864.52
610.66	3753.93
610.85	3753.93
611.04	3788.74
611.23	3674.06
611.42	3782.60
611.61	3682.25
611.80	3690.44
612.00	3936.20
612.19	3831.75
612.38	3680.20
612.57	3815.37
612.76	3778.50
612.95	4054.98
613.14	3876.80
613.34	3639.24
613.53	3682.25
613.72	3719.11
613.91	3684.30
614.10	3743.69
614.29	3719.11
614.48	3809.22
614.67	3641.29
614.87	3694.54
615.06	3643.34
615.25	3807.17
615.44	3737.54
615.63	3725.26
615.82	3829.70
616.01	3725.26
616.20	3774.41
616.40	3667.91
616.59	3889.09
616.78	3813.32
616.97	3854.28
617.16	3817.41
617.35	3846.09
617.54	3944.39
617.73	3907.52
617.92	3829.70
618.12	3639.24
618.31	3758.02
618.50	3962.82
618.69	3852.23
618.88	3784.65
619.07	3796.93
619.26	3686.34
619.45	3807.17
619.64	3702.73
619.83	3772.36
620.02	3692.49
620.22	3809.22
620.41	3755.97
620.60	4022.21
620.79	3815.37
620.98	3643.34
621.17	3741.64
621.36	3923.91
621.55	3672.01
621.74	3821.51
621.93	3819.46
622.12	3901.38
622.31	3798.98
622.51	4052.93
622.70	3860.42
622.89	3878.85
623.08	3950.53
623.27	3880.90
623.46	3831.75
623.65	3872.71
623.84	3665.86
624.03	3891.14
624.22	3809.22
624.41	3856.33
624.60	3774.41
624.79	3876.80
624.98	3829.70
625.17	3815.37
625.36	3848.13
625.55	3819.46
625.74	3817.41
625.94	3942.34
626.13	3942.34
626.32	3792.84
626.51	3798.98
626.70	3778.50
626.89	3786.69
627.08	3960.77
627.27	3979.20
627.46	3895.24
627.65	3844.04
627.84	3778.50
628.03	3960.77
628.22	3706.82
628.41	3968.96
628.60	3852.23
628.79	3831.75
628.98	3794.89
629.17	3755.97
629.36	3780.55
629.55	3919.81
629.74	3817.41
629.93	3860.42
630.12	3786.69
630.31	3794.89
630.50	3938.24
630.69	3833.80
630.88	3844.04
631.07	3778.50
631.26	3831.75
631.45	3833.80
631.64	3846.09
631.83	3706.82
632.02	3876.80
632.21	3735.50
632.40	3993.54
632.59	3844.04
632.78	3848.13
632.97	3848.13
633.16	4003.78
633.35	3774.41
633.54	3913.67
633.73	3770.31
633.92	3790.79
634.11	3717.06
634.30	3846.09
634.49	3762.12
634.68	3710.92
634.87	3866.56
635.06	3688.39
635.25	3882.95
635.44	3764.17
635.63	3747.78
635.82	3729.35
636.01	3692.49
636.20	3868.61
636.39	3913.67
636.58	3786.69
636.77	3788.74
636.96	3686.34
637.15	3823.56
637.34	3780.55
637.53	3909.57
637.72	3782.60
637.91	3700.68
638.09	3833.80
638.28	3872.71
638.47	3766.21
638.66	3792.84
638.85	3647.43
639.04	3848.13
639.23	3776.45
639.42	3817.41
639.61	3837.89
639.80	3792.84
639.99	3923.91
640.18	3817.41
640.37	4071.36
640.56	3837.89
640.75	3768.26
640.94	3692.49
641.13	3710.92
641.32	3696.58
641.50	3735.50
641.69	3700.68
641.88	3540.94
642.07	3629.00
642.26	3825.61
642.45	3803.08
642.64	3780.55
642.83	3768.26
643.02	3813.32
643.21	3944.39
643.40	3864.52
643.59	3745.73
643.77	3667.91
643.96	3893.19
644.15	3780.55
644.34	3792.84
644.53	3776.45
644.72	3682.25
644.91	3772.36
645.10	3803.08
645.29	3796.93
645.48	3739.59
645.67	3784.65
645.85	3739.59
646.04	3698.63
646.23	3762.12
646.42	3798.98
646.61	3600.33
646.80	3690.44
646.99	3659.72
647.18	3780.55
647.37	3719.11
647.55	3737.54
647.74	3874.76
647.93	3647.43
648.12	3737.54
648.31	3672.01
648.50	3739.59
648.69	3692.49
648.88	3600.33
649.06	3661.77
649.25	3604.42
649.44	3682.25
649.63	3512.27
649.82	3524.55
650.01	3637.19
650.20	3604.42
650.39	3596.23
650.57	3702.73
650.76	3766.21
650.95	3717.06
651.14	3686.34
651.33	3782.60
651.52	3815.37
651.70	3735.50
651.89	3618.76
652.08	3565.51
652.27	3801.03
652.46	3901.38
652.65	3629.00
652.84	3598.28
653.02	3753.93
653.21	3592.14
653.40	3645.38
653.59	3665.86
653.78	3688.39
653.97	3641.29
654.15	3792.84
654.34	3647.43
654.53	3545.03
654.72	3629.00
654.91	3669.96
655.10	3698.63
655.28	3661.77
655.47	3667.91
655.66	3489.74
655.85	3520.46
656.04	3489.74
656.23	3733.45
656.41	3565.51
656.60	3596.23
656.79	3696.58
656.98	3583.95
657.17	3631.05
657.35	3600.33
657.54	3581.90
657.73	3567.56
657.92	3674.06
658.11	3712.97
658.29	3540.94
658.48	3588.04
658.67	3704.78
658.86	3682.25
659.05	3473.36
659.23	3766.21
659.42	3712.97
659.61	3639.24
659.80	3667.91
659.99	3624.90
660.17	3602.38
660.36	3577.80
660.55	3520.46
660.74	3700.68
660.92	3571.66
661.11	3528.65
661.30	3614.66
661.49	3647.43
661.68	3508.17
661.86	3545.03
662.05	3684.30
662.24	3581.90
662.43	3692.49
662.61	3690.44
662.80	3637.19
662.99	3411.92
663.18	3602.38
663.37	3534.79
663.55	3616.71
663.74	3510.22
663.93	3467.21
664.12	3651.53
664.30	3680.20
664.49	3452.88
664.68	3635.14
664.87	3463.12
665.05	3585.99
665.24	3555.27
665.43	3688.39
665.62	3516.36
665.80	3590.09
665.99	3592.14
666.18	3608.52
666.37	3561.42
666.55	3637.19
666.74	3573.71
666.93	3647.43
667.11	3282.89
667.30	3504.07
667.49	3479.50
667.68	3573.71
667.86	3645.38
668.05	3575.75
668.24	3618.76
668.43	3565.51
668.61	3467.21
668.80	3563.47
668.99	3553.23
669.17	3624.90
669.36	3565.51
669.55	3561.42
669.74	3512.27
669.92	3524.55
670.11	3473.36
670.30	3610.57
670.48	3524.55
670.67	3561.42
670.86	3426.25
671.05	3461.07
671.23	3497.93
671.42	3366.86
671.61	3583.95
671.79	3510.22
671.98	3495.88
672.17	3610.57
672.35	3602.38
672.54	3549.13
672.73	3604.42
672.91	3624.90
673.10	3487.69
673.29	3420.11
673.48	3506.12
673.66	3446.73
673.85	3559.37
674.04	3399.63
674.22	3629.00
674.41	3483.59
674.60	3594.19
674.78	3465.16
674.97	3405.77
675.16	3471.31
675.34	3418.06
675.53	3624.90
675.72	3592.14
675.90	3487.69
676.09	3403.72
676.28	3473.36
676.46	3422.16
676.65	3538.89
676.84	3534.79
677.02	3635.14
677.21	3407.82
677.40	3530.70
677.58	3469.26
677.77	3510.22
677.95	3532.75
678.14	3504.07
678.33	3436.49
678.51	3530.70
678.70	3463.12
678.89	3424.20
679.07	3469.26
679.26	3385.29
679.45	3495.88
679.63	3575.75
679.82	3467.21
680.01	3575.75
680.19	3370.96
680.38	3551.18
680.56	3428.30
680.75	3549.13
680.94	3422.16
681.12	3409.87
681.31	3379.15
681.50	3366.86
681.68	3422.16
681.87	3438.54
682.05	3405.77
682.24	3522.51
682.43	3350.48
682.61	3489.74
682.80	3459.02
682.98	3545.03
683.17	3438.54
683.36	3409.87
683.54	3360.72
683.73	3473.36
683.91	3538.89
684.10	3479.50
684.29	3536.84
684.47	3432.40
684.66	3405.77
684.84	3389.39
685.03	3352.52
685.22	3422.16
685.40	3379.15
685.59	3493.83
685.77	3614.66
685.96	3461.07
686.15	3274.70
686.33	3444.68
686.52	3481.55
686.70	3508.17
686.89	3446.73
687.07	3409.87
687.26	3399.63
687.45	3499.98
687.63	3465.16
687.82	3389.39
688.00	3542.99
688.19	3368.91
688.37	3332.05
688.56	3469.26
688.75	3549.13
688.93	3557.32
689.12	3403.72
689.30	3383.24
689.49	3420.11
689.67	3520.46
689.86	3430.35
690.04	3377.10
690.23	3360.72
690.42	3354.57
690.60	3530.70
690.79	3508.17
690.97	3465.16
691.16	3256.27
691.34	3463.12
691.53	3434.44
691.71	3463.12
691.90	3530.70
692.08	3246.03
692.27	3479.50
692.45	3409.87
692.64	3428.30
692.83	3422.16
693.01	3418.06
693.20	3303.37
693.38	3338.19
693.57	3612.62
693.75	3377.10
693.94	3413.96
694.12	3379.15
694.31	3401.68
694.49	3459.02
694.68	3422.16
694.86	3448.78
695.05	3313.61
695.23	3366.86
695.42	3516.36
695.60	3475.40
695.79	3420.11
695.97	3430.35
696.16	3352.52
696.34	3327.95
696.53	3366.86
696.71	3442.64
696.90	3299.28
697.08	3360.72
697.27	3495.88
697.45	3270.61
697.64	3364.81
697.82	3311.57
698.01	3391.44
698.19	3444.68
698.38	3448.78
698.56	3422.16
698.75	3465.16
698.93	3317.71
699.12	3536.84
699.30	3256.27
699.49	3452.88
699.67	3338.19
699.86	3332.05
700.04	3346.38
700.22	3344.33
700.41	3379.15
700.59	3264.46
700.78	3381.20
700.96	3426.25
701.15	3284.94
701.33	3397.58
701.52	3332.05
701.70	3344.33
701.89	3305.42
702.07	3315.66
702.26	3401.68
702.44	3413.96
702.62	3268.56
702.81	3342.28
702.99	3282.89
703.18	3334.09
703.36	3317.71
703.55	3346.38
703.73	3391.44
703.92	3336.14
704.10	3403.72
704.28	3428.30
704.47	3239.89
704.65	3305.42
704.84	3334.09
705.02	3237.84
705.21	3309.52
705.39	3293.13
705.57	3315.66
705.76	3286.99
705.94	3301.33
706.13	3229.65
706.31	3188.69
706.50	3229.65
706.68	3237.84
706.86	3250.13
707.05	3282.89
707.23	3258.32
707.42	3397.58
707.60	3223.50
707.78	3321.81
707.97	3282.89
708.15	3332.05
708.34	3200.98
708.52	3151.82
708.70	3309.52
708.89	3246.03
709.07	3166.16
709.26	3233.74
709.44	3411.92
709.62	3217.36
709.81	3155.92
709.99	3311.57
710.18	3284.94
710.36	3231.69
710.54	3289.04
710.73	3344.33
710.91	3217.36
711.10	3364.81
711.28	3162.06
711.46	3184.59
711.65	3223.50
711.83	3178.45
712.01	3334.09
712.20	3141.58
712.38	3198.93
712.57	3258.32
712.75	3184.59
712.93	3235.79
713.12	3258.32
713.30	3092.43
713.48	3080.14
713.67	3141.58
713.85	3180.50
714.03	3180.50
714.22	3248.08
714.40	3178.45
714.58	3123.15
714.77	3219.41
714.95	3184.59
715.14	3078.10
715.32	3190.74
715.50	3200.98
715.69	3125.20
715.87	3131.34
716.05	3041.23
716.24	3074.00
716.42	3024.85
716.60	3127.25
716.79	3112.91
716.97	3139.54
717.15	3135.44
717.34	3129.30
717.52	3033.04
717.70	3100.62
717.89	3102.67
718.07	3125.20
718.25	3020.75
718.44	3203.02
718.62	3129.30
718.80	3110.86
718.98	3090.38
719.17	3078.10
719.35	3188.69
719.53	2998.23
719.72	3012.56
719.90	2975.70
720.08	3090.38
720.27	2996.18
720.45	3092.43
720.63	2994.13
720.82	3078.10
721.00	2987.99
721.18	2871.25
721.36	3131.34
721.55	3135.44
721.73	3045.33
721.91	3086.29
722.10	2979.79
722.28	2953.17
722.46	2983.89
722.64	2885.59
722.83	3002.32
723.01	2996.18
723.19	3037.14
723.38	2953.17
723.56	3090.38
723.74	2889.68
723.92	3000.27
724.11	3012.56
724.29	3039.19
724.47	2869.20
724.65	3039.19
724.84	2942.93
725.02	3045.33
725.20	3041.23
725.39	2940.88
725.57	2955.22
725.75	3129.30
725.93	3028.95
726.12	3033.04
726.30	2963.41
726.48	2924.50
726.66	2924.50
726.85	2861.01
727.03	2983.89
727.21	2953.17
727.39	2955.22
727.58	2965.46
727.76	2873.30
727.94	2836.44
728.12	2805.72
728.30	2895.83
728.49	2924.50
728.67	2717.65
728.85	2842.58
729.03	2881.49
729.22	2971.60
729.40	2832.34
729.58	2916.31
729.76	2856.92
729.95	2981.84
730.13	2914.26
730.31	2805.72
730.49	3039.19
730.67	2729.94
730.86	2967.51
731.04	2914.26
731.22	2750.42
731.40	2891.73
731.58	2899.92
731.77	2971.60
731.95	2901.97
732.13	2881.49
732.31	2672.60
732.50	3000.27
732.68	2686.94
732.86	2772.95
733.04	2707.41
733.22	2734.04
733.40	2736.09
733.59	2873.30
733.77	2813.91
733.95	2742.23
734.13	2818.00
734.31	2887.64
734.50	2783.19
734.68	2811.86
734.86	2809.81
735.04	2707.41
735.22	2824.15
735.41	2797.53
735.59	2658.26
735.77	2760.66
735.95	2803.67
736.13	2654.17
736.31	2725.85
736.50	2789.33
736.68	2914.26
736.86	2738.13
737.04	2701.27
737.22	2699.22
737.40	2697.17
737.59	2781.14
737.77	2742.23
737.95	2789.33
738.13	2740.18
738.31	2873.30
738.49	2717.65
738.67	2590.68
738.86	2746.33
739.04	2707.41
739.22	2668.50
739.40	2609.11
739.58	2750.42
739.76	2746.33
739.94	2658.26
740.13	2895.83
740.31	2811.86
740.49	2711.51
740.67	2795.48
740.85	2715.61
741.03	2602.97
741.21	2787.29
741.39	2678.74
741.58	2664.41
741.76	2756.57
741.94	2740.18
742.12	2662.36
742.30	2586.58
742.48	2715.61
742.66	2711.51
742.84	2666.46
743.03	2631.64
743.21	2756.57
743.39	2676.70
743.57	2664.41
743.75	2684.89
743.93	2697.17
744.11	2643.93
744.29	2734.04
744.47	2705.37
744.65	2680.79
744.84	2613.21
745.02	2635.74
745.20	2508.76
745.38	2557.91
745.56	2582.49
745.74	2564.06
745.92	2678.74
746.10	2709.46
746.28	2584.54
746.46	2643.93
746.64	2557.91
746.82	2719.70
747.01	2557.91
747.19	2580.44
747.37	2578.39
747.55	2656.22
747.73	2682.84
747.91	2535.39
748.09	2502.62
748.27	2510.81
748.45	2594.78
748.63	2586.58
748.81	2502.62
748.99	2605.02
749.17	2486.23
749.35	2459.61
749.53	2453.47
749.72	2519.00
749.90	2539.48
750.08	2631.64
750.26	2559.96
750.44	2600.92
750.62	2605.02
750.80	2545.63
750.98	2416.60
751.16	2377.69
751.34	2439.13
751.52	2498.52
751.70	2555.86
751.88	2539.48
752.06	2613.21
752.24	2568.15
752.42	2504.67
752.60	2562.01
752.78	2449.37
752.96	2449.37
753.14	2545.63
753.32	2449.37
753.50	2553.82
753.68	2416.60
753.86	2512.86
754.04	2461.66
754.22	2373.60
754.40	2525.15
754.58	2455.51
754.76	2451.42
754.94	2439.13
755.12	2525.15
755.30	2449.37
755.48	2488.28
755.66	2504.67
755.84	2478.04
756.02	2529.24
756.20	2457.56
756.38	2578.39
756.56	2453.47
756.74	2396.12
756.92	2533.34
757.10	2516.95
757.28	2439.13
757.46	2340.83
757.64	2541.53
757.82	2432.99
758.00	2430.94
758.18	2488.28
758.36	2408.41
758.54	2418.65
758.72	2510.81
758.90	2435.03
759.08	2422.75
759.26	2562.01
759.44	2443.23
759.62	2562.01
759.80	2369.50
759.98	2445.27
760.16	2480.09
760.34	2412.51
760.52	2570.20
760.70	2416.60
760.88	2410.46
761.06	2287.58
761.24	2435.03
761.42	2400.22
761.60	2586.58
761.77	2510.81
761.95	2459.61
762.13	2516.95
762.31	2508.76
762.49	2308.06
762.67	2447.32
762.85	2381.79
763.03	2410.46
763.21	2349.02
763.39	2375.64
763.57	2553.82
763.75	2537.43
763.93	2480.09
764.11	2453.47
764.29	2285.53
764.46	2475.99
764.64	2383.84
764.82	2308.06
765.00	2478.04
765.18	2510.81
765.36	2510.81
765.54	2430.94
765.72	2484.19
765.90	2392.03
766.08	2488.28
766.26	2492.38
766.44	2418.65
766.61	2258.91
766.79	2318.30
766.97	2359.26
767.15	2299.87
767.33	2402.27
767.51	2279.39
767.69	2404.32
767.87	2480.09
768.05	2379.74
768.22	2453.47
768.40	2469.85
768.58	2402.27
768.76	2271.20
768.94	2363.36
769.12	2318.30
769.30	2381.79
769.48	2373.60
769.66	2332.64
769.83	2232.29
770.01	2371.55
770.19	2328.54
770.37	2443.23
770.55	2099.17
770.73	2353.12
770.91	2240.48
771.09	2293.72
771.26	2258.91
771.44	2430.94
771.62	2283.49
771.80	2314.20
771.98	2377.69
772.16	2475.99
772.34	2285.53
772.51	2324.44
772.69	2371.55
772.87	2353.12
773.05	2205.66
773.23	2246.62
773.41	2295.77
773.58	2314.20
773.76	2252.77
773.94	2353.12
774.12	2365.40
774.30	2312.16
774.48	2383.84
774.65	2158.56
774.83	2316.25
775.01	2197.47
775.19	2234.33
775.37	2289.63
775.55	2353.12
775.72	2281.44
775.90	2324.44
776.08	2236.38
776.26	2467.80
776.44	2398.17
776.61	2244.57
776.79	2330.59
776.97	2185.18
777.15	2258.91
777.33	2174.94
777.51	2127.84
777.68	2109.41
777.86	2131.94
778.04	2287.58
778.22	2105.31
778.40	2381.79
778.57	2230.24
778.75	2144.22
778.93	2244.57
779.11	2287.58
779.29	2228.19
779.46	2199.52
779.64	2125.79
779.82	2308.06
780.00	2172.89
780.17	2211.81
780.35	2127.84
780.53	2230.24
780.71	2285.53
780.89	2254.81
781.06	2232.29
781.24	2320.35
781.42	2197.47
781.60	2246.62
781.77	2105.31
781.95	2205.66
782.13	2273.25
782.31	2250.72
782.48	2234.33
782.66	2127.84
782.84	2308.06
783.02	2258.91
783.19	2222.05
783.37	2197.47
783.55	2201.57
783.73	2228.19
783.90	2170.85
784.08	2181.09
784.26	2084.83
784.44	2043.87
784.61	2148.32
784.79	2185.18
784.97	2121.70
785.15	2265.05
785.32	2136.03
785.50	2187.23
785.68	2312.16
785.86	2207.71
786.03	2027.49
786.21	2240.48
786.39	2095.07
786.57	2170.85
786.74	2109.41
786.92	2156.51
787.10	2201.57
787.27	2154.46
787.45	2123.74
787.63	2226.14
787.81	2220.00
787.98	2131.94
788.16	2303.96
788.34	2193.37
788.51	2176.99
788.69	2111.46
788.87	2160.61
789.04	2301.92
789.22	2265.05
789.40	2095.07
789.58	2179.04
789.75	2154.46
789.93	2144.22
790.11	2170.85
790.28	2082.78
790.46	2187.23
790.64	2113.50
790.81	2162.66
790.99	2244.57
791.17	2156.51
791.34	2076.64
791.52	2062.30
791.70	2148.32
791.87	2295.77
792.05	2207.71
792.23	2146.27
792.40	2164.70
792.58	2056.16
792.76	2090.98
792.93	2176.99
793.11	2090.98
793.29	2265.05
793.46	2111.46
793.64	2211.81
793.82	2183.13
793.99	2031.58
794.17	2058.21
794.35	2082.78
794.52	2232.29
794.70	2142.18
794.88	2283.49
795.05	2162.66
795.23	2000.87
795.41	2127.84
795.58	1961.95
795.76	2152.42
795.94	1974.24
796.11	2150.37
796.29	2170.85
796.46	2213.85
796.64	2031.58
796.82	2043.87
796.99	2031.58
797.17	2052.06
797.35	2191.33
797.52	2076.64
797.70	2207.71
797.87	2316.25
798.05	2336.73
798.23	2078.69
798.40	2158.56
798.58	2009.06
798.76	2023.39
798.93	2090.98
799.11	2146.27
799.28	2209.76
799.46	2119.65
799.64	2013.15
799.81	2115.55
799.99	2070.50
800.16	1976.29
800.34	2000.87
800.52	2050.02
800.69	2095.07
800.87	1988.58
801.04	2086.88
801.22	2109.41
801.39	2170.85
801.57	1996.77
801.75	2017.25
801.92	2160.61
802.10	2054.11
802.27	1978.34
802.45	2111.46
802.63	2181.09
802.80	2254.81
802.98	1982.43
803.15	2101.22
803.33	2041.82
803.50	2070.50
803.68	2230.24
803.86	2168.80
804.03	2095.07
804.21	2289.63
804.38	2109.41
804.56	2293.72
804.73	2230.24
804.91	1920.99
805.08	2164.70
805.26	2023.39
805.44	2029.54
805.61	2183.13
805.79	2107.36
805.96	2113.50
806.14	1996.77
806.31	1974.24
806.49	2193.37
806.66	2099.17
806.84	2172.89
807.01	2195.42
807.19	2039.78
807.36	2068.45
807.54	2226.14
807.71	2054.11
807.89	2138.08
808.07	2103.26
808.24	2066.40
808.42	2156.51
808.59	2095.07
808.77	2213.85
808.94	2129.89
809.12	2021.35
809.29	2074.59
809.47	2101.22
809.64	2093.02
809.82	2158.56
809.99	2074.59
810.17	2158.56
810.34	2125.79
810.52	2095.07
810.69	2162.66
810.87	2019.30
811.04	2078.69
811.22	2172.89
811.39	2140.13
811.57	2002.91
811.74	2056.16
811.92	2070.50
812.09	2187.23
812.27	2105.31
812.44	1968.10
812.62	2082.78
812.79	2166.75
812.97	2220.00
813.14	2125.79
813.31	1900.52
813.49	2050.02
813.66	1988.58
813.84	2088.93
814.01	2052.06
814.19	2066.40
814.36	2131.94
814.54	2037.73
814.71	2080.74
814.89	2070.50
815.06	2099.17
815.24	2146.27
815.41	2080.74
815.58	2101.22
815.76	2144.22
815.93	2164.70
816.11	2176.99
816.28	1935.33
816.46	2068.45
816.63	2090.98
816.81	1964.00
816.98	2064.35
817.15	2099.17
817.33	2209.76
817.50	2009.06
817.68	2025.44
817.85	2213.85
818.03	2052.06
818.20	2052.06
818.37	2037.73
818.55	2017.25
818.72	2011.11
818.90	2172.89
819.07	2131.94
819.25	2164.70
819.42	2086.88
819.59	1964.00
819.77	2070.50
819.94	2144.22
820.12	2230.24
820.29	2189.28
820.46	2103.26
820.64	2023.39
820.81	1953.76
820.99	2072.54
821.16	2037.73
821.33	2088.93
821.51	2164.70
821.68	1986.53
821.86	2209.76
822.03	2029.54
822.20	2148.32
822.38	2052.06
822.55	2115.55
822.73	2050.02
822.90	2111.46
823.07	1984.48
823.25	2101.22
823.42	1976.29
823.59	2101.22
823.77	2000.87
823.94	2138.08
824.12	2088.93
824.29	2029.54
824.46	2084.83
824.64	2093.02
824.81	1964.00
824.98	2076.64
825.16	1968.10
825.33	1910.75
825.50	2027.49
825.68	2105.31
825.85	2107.36
826.03	2021.35
826.20	2011.11
826.37	2066.40
826.55	2103.26
826.72	2111.46
826.89	2099.17
827.07	2033.63
827.24	1984.48
827.41	2070.50
827.59	1980.39
827.76	1996.77
827.93	2090.98
828.11	2078.69
828.28	1998.82
828.45	2045.92
828.63	2021.35
828.80	2004.96
828.97	2027.49
829.15	2029.54
829.32	1857.51
829.49	1998.82
829.67	2002.91
829.84	1959.91
830.01	1959.91
830.18	2015.20
830.36	2037.73
830.53	1955.81
830.70	2064.35
830.88	1937.38
831.05	2056.16
831.22	2117.60
831.40	1923.04
831.57	1918.95
831.74	2123.74
831.91	2066.40
832.09	1943.52
832.26	2019.30
832.43	2037.73
832.61	1959.91
832.78	2033.63
832.95	1933.28
833.13	2056.16
833.30	2041.82
833.47	2019.30
833.64	1931.23
833.82	2093.02
833.99	1994.72
834.16	2002.91
834.33	2002.91
834.51	2056.16
834.68	2047.97
834.85	1966.05
835.03	1925.09
835.20	1920.99
835.37	1892.32
835.54	1933.28
835.72	2056.16
835.89	2039.78
836.06	2004.96
836.23	1902.56
836.41	1961.95
836.58	1929.19
836.75	2017.25
836.92	2000.87
837.10	1847.27
837.27	1957.86
837.44	2050.02
837.61	1902.56
837.78	2013.15
837.96	2021.35
838.13	2064.35
838.30	1980.39
838.47	2031.58
838.65	1880.04
838.82	1910.75
838.99	1961.95
839.16	1849.32
839.34	1953.76
839.51	2031.58
839.68	1980.39
839.85	1996.77
840.02	1853.41
840.20	1964.00
840.37	1865.70
840.54	1822.69
840.71	1906.66
840.88	1832.93
841.06	1877.99
841.23	1978.34
841.40	2011.11
841.57	2011.11
841.74	1812.45
841.92	1877.99
842.09	1939.43
842.26	1927.14
842.43	1787.88
842.60	1894.37
842.78	1941.47
842.95	1828.84
843.12	1996.77
843.29	1873.89
843.46	1931.23
843.64	1820.64
843.81	1851.36
843.98	1927.14
844.15	2037.73
844.32	1896.42
844.49	1791.97
844.67	1966.05
844.84	1943.52
845.01	1894.37
845.18	1935.33
845.35	1871.84
845.52	1744.87
845.70	2023.39
845.87	1847.27
846.04	1902.56
846.21	1722.34
846.38	2101.22
846.55	1734.63
846.72	1861.60
846.90	1898.47
847.07	1824.74
847.24	1941.47
847.41	1931.23
847.58	1794.02
847.75	1779.68
847.92	1884.13
848.10	1873.89
848.27	1783.78
848.44	1884.13
848.61	1789.92
848.78	1849.32
848.95	1826.79
849.12	1802.21
849.29	1832.93
849.47	1837.03
849.64	1751.01
849.81	1886.18
849.98	1953.76
850.15	1914.85
850.32	1810.40
850.49	1806.31
850.66	1660.90
850.84	1855.46
851.01	1773.54
851.18	1884.13
851.35	1757.16
851.52	1767.40
851.69	1853.41
851.86	1871.84
852.03	1800.16
852.20	1712.10
852.37	1808.36
852.54	1810.40
852.72	1826.79
852.89	1933.28
853.06	1826.79
853.23	1718.25
853.40	1769.44
853.57	1701.86
853.74	1818.60
853.91	1742.82
854.08	1722.34
854.25	1601.51
854.42	1826.79
854.59	1767.40
854.76	1796.07
854.94	1693.67
855.11	1775.59
855.28	1660.90
855.45	1796.07
855.62	1818.60
855.79	1705.96
855.96	1685.48
856.13	1624.04
856.30	1660.90
856.47	1837.03
856.64	1843.17
856.81	1726.44
856.98	1744.87
857.15	1730.53
857.32	1603.56
857.49	1732.58
857.66	1658.85
857.83	1695.72
858.00	1751.01
858.17	1730.53
858.35	1697.77
858.52	1863.65
858.69	1566.70
858.86	1630.18
859.03	1716.20
859.20	1794.02
859.37	1599.46
859.54	1669.09
859.71	1712.10
859.88	1636.33
860.05	1732.58
860.22	1619.94
860.39	1677.29
860.56	1632.23
860.73	1771.49
860.90	1728.49
861.07	1693.67
861.24	1693.67
861.41	1736.68
861.58	1644.52
861.75	1587.18
861.92	1685.48
862.09	1611.75
862.26	1640.42
862.43	1681.38
862.60	1697.77
862.77	1710.05
862.94	1632.23
863.11	1665.00
863.28	1757.16
863.45	1665.00
863.62	1660.90
863.79	1542.12
863.96	1779.68
864.13	1732.58
864.30	1589.22
864.46	1583.08
864.63	1665.00
864.80	1585.13
864.97	1748.97
865.14	1466.35
865.31	1535.98
865.48	1605.61
865.65	1632.23
865.82	1642.47
865.99	1626.09
866.16	1685.48
866.33	1624.04
866.50	1648.61
866.67	1802.21
866.84	1652.71
867.01	1712.10
867.18	1740.77
867.35	1800.16
867.52	1701.86
867.69	1632.23
867.85	1531.88
868.02	1708.01
868.19	1724.39
868.36	1572.84
868.53	1650.66
868.70	1591.27
868.87	1732.58
869.04	1488.87
869.21	1560.55
869.38	1632.23
869.55	1726.44
869.72	1611.75
869.89	1466.35
870.05	1581.03
870.22	1605.61
870.39	1531.88
870.56	1722.34
870.73	1593.32
870.90	1710.05
871.07	1597.42
871.24	1636.33
871.41	1607.66
871.58	1568.74
871.74	1533.93
871.91	1609.70
872.08	1619.94
872.25	1529.83
872.42	1509.35
872.59	1488.87
872.76	1615.85
872.93	1716.20
873.10	1603.56
873.26	1497.07
873.43	1624.04
873.60	1677.29
873.77	1443.82
873.94	1505.26
874.11	1677.29
874.28	1736.68
874.45	1599.46
874.61	1507.30
874.78	1595.37
874.95	1511.40
875.12	1550.31
875.29	1538.02
875.46	1570.79
875.63	1716.20
875.79	1611.75
875.96	1525.74
876.13	1513.45
876.30	1437.67
876.47	1554.41
876.64	1538.02
876.80	1517.54
876.97	1615.85
877.14	1572.84
877.31	1527.78
877.48	1560.55
877.65	1603.56
877.81	1550.31
877.98	1445.87
878.15	1695.72
878.32	1546.22
878.49	1619.94
878.66	1615.85
878.82	1734.63
878.99	1552.36
879.16	1505.26
879.33	1460.20
879.50	1619.94
879.67	1683.43
879.83	1474.54
880.00	1495.02
880.17	1554.41
880.34	1589.22
880.51	1505.26
880.67	1523.69
880.84	1628.14
881.01	1595.37
881.18	1538.02
881.35	1527.78
881.51	1447.91
881.68	1685.48
881.85	1611.75
882.02	1558.50
882.18	1429.48
882.35	1449.96
882.52	1611.75
882.69	1511.40
882.86	1521.64
883.02	1454.06
883.19	1464.30
883.36	1533.93
883.53	1503.21
883.69	1421.29
883.86	1456.11
884.03	1566.70
884.20	1521.64
884.36	1581.03
884.53	1507.30
884.70	1488.87
884.87	1433.58
885.04	1669.09
885.20	1523.69
885.37	1529.83
885.54	1445.87
885.71	1607.66
885.87	1486.83
886.04	1472.49
886.21	1546.22
886.38	1589.22
886.54	1468.39
886.71	1533.93
886.88	1617.90
>>>>>End Processed Spectral Data<<<<<
